arr_code,srch_code,type,semi_field,arr_1,arr_2,cat,target,target_2,s1,s2,s3,s4,x1,x2,x3,x4,y1,y2,y3,y4,postr,postr_2,ss1,ss2,ss3,ss4,set_size,s5,s6,s7,s8,s9,s10,s11,s12,x5,x6,x7,x8,x9,x10,x11,x12,y5,y6,y7,y8,y9,y10,y11,y12,ss5,ss6,ss7,ss8,ss9,ss10,ss11,ss12,train.thisRepN,train.thisTrialN,train.thisN,train.thisIndex,block_bas.thisRepN,block_bas.thisTrialN,block_bas.thisN,block_bas.thisIndex,block_sup.thisRepN,block_sup.thisTrialN,block_sup.thisN,block_sup.thisIndex,instruction.started,instruction.stopped,key_resp.keys,key_resp.rt,key_resp.started,key_resp.stopped,polygon.started,polygon.stopped,key_resp_2.keys,key_resp_2.rt,key_resp_2.started,key_resp_2.stopped,text.started,text.stopped,key_resp_3.keys,key_resp_3.rt,key_resp_3.started,key_resp_3.stopped,polygon_2.started,polygon_2.stopped,arr1.started,arr1.stopped,arr2.started,arr2.stopped,polygon_3.started,polygon_3.stopped,polygon_4.started,polygon_4.stopped,word1.started,word1.stopped,word2.started,word2.stopped,polygon_5.started,polygon_5.stopped,polygon_6.started,polygon_6.stopped,key_resp_4.keys,key_resp_4.rt,key_resp_4.started,key_resp_4.stopped,s_1.started,s_1.stopped,s_2.started,s_2.stopped,s_3.started,s_3.stopped,s_4.started,s_4.stopped,text_3.started,text_3.stopped,key_resp_5.keys,key_resp_5.rt,key_resp_5.started,key_resp_5.stopped,polygon_8.started,polygon_8.stopped,key_resp_6.keys,key_resp_6.started,key_resp_6.stopped,sti1.started,sti1.stopped,sti2.started,sti2.stopped,sti3.started,sti3.stopped,sti4.started,sti4.stopped,sti5.started,sti5.stopped,sti6.started,sti6.stopped,sti7.started,sti7.stopped,sti8.started,sti8.stopped,sti9.started,sti9.stopped,sti10.started,sti10.stopped,sti11.started,sti11.stopped,sti12.started,sti12.stopped,key_resp_6.rt,text_2.started,text_2.stopped,key_resp_7.keys,key_resp_7.rt,key_resp_7.started,key_resp_7.stopped,participant,session,date,expName,psychopyVersion,frameRate,
,,,,,,,,,,,,,,,,,,,,,,,,,,,,,,,,,,,,,,,,,,,,,,,,,,,,,,,,,,,,,,,,,,,,,,,,28.17200869997032,None,space,55.38122150010895,28.17200869997032,None,,,,,,,,,,,,,,,,,,,,,,,,,,,,,,,,,,,,,,,,,,,,,,,,,,,,,,,,,,,,,,,,,,,,,,,,,,,,,,,,,,,,,alefn,001,2021_Sep_28_1933,shapka,2021.1.4,59.98080614949972,
,,,,,,,,,,,,,,,,,,,,,,,,,,,,,,,,,,,,,,,,,,,,,,,,,,,,,,,,,,,,,,,,,,,,,,,,,,,,,,83.58329199999571,None,right,99.00611019995995,83.58329199999571,None,,,,,,,,,,,,,,,,,,,,,,,,,,,,,,,,,,,,,,,,,,,,,,,,,,,,,,,,,,,,,,,,,,,,,,,,,,,,,,,alefn,001,2021_Sep_28_1933,shapka,2021.1.4,59.98080614949972,
,,,,,,,,,,,,,,,,,,,,,,,,,,,,,,,,,,,,,,,,,,,,,,,,,,,,,,,,,,,,,,,,,,,,,,,,,,,,,,,,,,,,182.60464479995426,None,space,3.8449385999701917,182.60464479995426,None,,,,,,,,,,,,,,,,,,,,,,,,,,,,,,,,,,,,,,,,,,,,,,,,,,,,,,,,,,,,,,,,,,,,,,,,,alefn,001,2021_Sep_28_1933,shapka,2021.1.4,59.98080614949972,
1,6,abs,left,left.png,left.png,sup,Фрукты,Бухты,music3.png,tool2.png,animal3.png,car2.png,-298,-298,298,298,316,-316,316,-316,"[-200, 0]","[200, 0]","[104, 104]","[104, 104]","[104, 104]","[104, 104]",,,,,,,,,,,,,,,,,,,,,,,,,,,,,,,,,,0,0,0,1,,,,,,,,,,,,,,,,,,,,,,,,,,,186.6140014999546,None,186.6140014999546,None,186.6140014999546,None,186.6874665999785,None,187.1145193000557,None,187.1145193000557,None,187.1145193000557,None,187.48768779996317,None,188.50863669998944,None,a,2.3965976000763476,188.50863669998944,None,188.50863669998944,None,188.50863669998944,None,188.50863669998944,None,188.50863669998944,None,,,,,,,,,,,,,,,,,,,,,,,,,,,,,,,,,,,,,,,,,,,alefn,001,2021_Sep_28_1933,shapka,2021.1.4,59.98080614949972,
1,5,pre,left,left.png,left.png,bas,Рубашки,Барашки,clothes1.png,tool6.png,animal1.png,music2.png,-298,-298,298,298,-316,316,-316,316,"[-200, 0]","[200, 0]","[104, 104]","[104, 104]","[104, 104]","[104, 104]",,,,,,,,,,,,,,,,,,,,,,,,,,,,,,,,,,0,1,1,6,,,,,,,,,,,,,,,,,,,,,,,,,,,190.949078500038,None,190.949078500038,None,190.949078500038,None,191.15447599999607,None,191.56657510006335,None,191.56657510006335,None,191.56657510006335,None,191.97113810002338,None,192.99169579998124,None,p,1.5056991999736056,192.99169579998124,None,192.99169579998124,None,192.99169579998124,None,192.99169579998124,None,192.99169579998124,None,,,,,,,,,,,,,,,,,,,,,,,,,,,,,,,,,,,,,,,,,,,alefn,001,2021_Sep_28_1933,shapka,2021.1.4,59.98080614949972,
2,5,pre,right,right.png,right.png,sup,Мебель,Стебель,furniture5.png,music1.png,car4.png,tool5.png,298,298,-298,-298,316,-316,316,-316,"[200, 0]","[-200, 0]","[104, 104]","[104, 104]","[104, 104]","[104, 104]",,,,,,,,,,,,,,,,,,,,,,,,,,,,,,,,,,0,2,2,11,,,,,,,,,,,,,,,,,,,,,,,,,,,194.5585604000371,None,194.5585604000371,None,194.5585604000371,None,194.77131530002225,None,195.18107809999492,None,195.18107809999492,None,195.18107809999492,None,195.5880045000231,None,196.60435300006066,None,p,2.581156100030057,196.60435300006066,None,196.60435300006066,None,196.60435300006066,None,196.60435300006066,None,196.60435300006066,None,,,,,,,,,,,,,,,,,,,,,,,,,,,,,,,,,,,,,,,,,,,alefn,001,2021_Sep_28_1933,shapka,2021.1.4,59.98080614949972,
1,5,pre,left,left.png,left.png,sup,Мебель,Стебель,furniture2.png,tool5.png,music1.png,animal6.png,-298,-298,298,298,316,-316,316,-316,"[-200, 0]","[200, 0]","[104, 104]","[104, 104]","[104, 104]","[104, 104]",,,,,,,,,,,,,,,,,,,,,,,,,,,,,,,,,,0,3,3,3,,,,,,,,,,,,,,,,,,,,,,,,,,,199.23642630001996,None,199.23642630001996,None,199.23642630001996,None,199.4383087999886,None,199.83966980001424,None,199.83966980001424,None,199.83966980001424,None,200.25497500004712,None,201.285624000011,None,a,2.3876953999279067,201.285624000011,None,201.285624000011,None,201.285624000011,None,201.285624000011,None,201.285624000011,None,,,,,,,,,,,,,,,,,,,,,,,,,,,,,,,,,,,,,,,,,,,alefn,001,2021_Sep_28_1933,shapka,2021.1.4,59.98080614949972,
1,5,pre,left,left.png,left.png,sup,Одежда,Невежда,clothes2.png,animal6.png,tool6.png,tool1.png,-298,-298,298,298,-316,316,-316,316,"[-200, 0]","[200, 0]","[104, 104]","[104, 104]","[104, 104]","[104, 104]",,,,,,,,,,,,,,,,,,,,,,,,,,,,,,,,,,0,4,4,7,,,,,,,,,,,,,,,,,,,,,,,,,,,203.73995740001556,None,203.73995740001556,None,203.73995740001556,None,203.95504340005573,None,204.36782090005,None,204.36782090005,None,204.36782090005,None,204.77173959999345,None,205.78521800006274,None,p,3.0719763999804854,205.78521800006274,None,205.78521800006274,None,205.78521800006274,None,205.78521800006274,None,205.78521800006274,None,,,,,,,,,,,,,,,,,,,,,,,,,,,,,,,,,,,,,,,,,,,alefn,001,2021_Sep_28_1933,shapka,2021.1.4,59.98080614949972,
2,5,pre,right,right.png,right.png,bas,Стулья,Брусья,furniture4.png,music5.png,music3.png,tool4.png,298,298,-298,-298,316,-316,316,-316,"[200, 0]","[-200, 0]","[104, 104]","[104, 104]","[104, 104]","[104, 104]",,,,,,,,,,,,,,,,,,,,,,,,,,,,,,,,,,0,5,5,10,,,,,,,,,,,,,,,,,,,,,,,,,,,208.9113714999985,None,208.9113714999985,None,208.9113714999985,None,209.12200299999677,None,209.52967249997891,None,209.52967249997891,None,209.52967249997891,None,209.93862060003448,None,210.95362319995183,None,a,1.9918309999629855,210.95362319995183,None,210.95362319995183,None,210.95362319995183,None,210.95362319995183,None,210.95362319995183,None,,,,,,,,,,,,,,,,,,,,,,,,,,,,,,,,,,,,,,,,,,,alefn,001,2021_Sep_28_1933,shapka,2021.1.4,59.98080614949972,
1,5,pre,left,left.png,left.png,sup,Посуда,Валюта,tableware4.png,animal1.png,tool2.png,animal2.png,-298,-298,298,298,-316,316,-316,316,"[-200, 0]","[200, 0]","[104, 104]","[104, 104]","[104, 104]","[104, 104]",,,,,,,,,,,,,,,,,,,,,,,,,,,,,,,,,,0,6,6,5,,,,,,,,,,,,,,,,,,,,,,,,,,,213.00705839996226,None,213.00705839996226,None,213.00705839996226,None,213.22208710003179,None,213.63355410005897,None,213.63355410005897,None,213.63355410005897,None,214.038777400041,None,215.0694116000086,None,p,1.9237755000358447,215.0694116000086,None,215.0694116000086,None,215.0694116000086,None,215.0694116000086,None,215.0694116000086,None,,,,,,,,,,,,,,,,,,,,,,,,,,,,,,,,,,,,,,,,,,,alefn,001,2021_Sep_28_1933,shapka,2021.1.4,59.98080614949972,
2,5,pre,right,right.png,right.png,bas,Рубашки,Барашки,clothes5.png,music4.png,animal6.png,tool1.png,298,298,-298,-298,-316,316,-316,316,"[200, 0]","[-200, 0]","[104, 104]","[104, 104]","[104, 104]","[104, 104]",,,,,,,,,,,,,,,,,,,,,,,,,,,,,,,,,,0,7,7,14,,,,,,,,,,,,,,,,,,,,,,,,,,,217.05954339995515,None,217.05954339995515,None,217.05954339995515,None,217.272388100042,None,217.6768554999726,None,217.6768554999726,None,217.6768554999726,None,218.08892999996897,None,219.109775000019,None,p,3.307855000020936,219.109775000019,None,219.109775000019,None,219.109775000019,None,219.109775000019,None,219.109775000019,None,,,,,,,,,,,,,,,,,,,,,,,,,,,,,,,,,,,,,,,,,,,alefn,001,2021_Sep_28_1933,shapka,2021.1.4,59.98080614949972,
1,5,pre,left,left.png,left.png,bas,Стулья,Брусья,furniture1.png,car4.png,tool5.png,tool2.png,-298,-298,298,298,316,-316,316,-316,"[-200, 0]","[200, 0]","[104, 104]","[104, 104]","[104, 104]","[104, 104]",,,,,,,,,,,,,,,,,,,,,,,,,,,,,,,,,,0,8,8,2,,,,,,,,,,,,,,,,,,,,,,,,,,,222.4789616999915,None,222.4789616999915,None,222.4789616999915,None,222.68922920001205,None,223.09382599999662,None,223.09382599999662,None,223.09382599999662,None,223.50569909997284,None,224.52114820003044,None,p,2.8961973999394104,224.52114820003044,None,224.52114820003044,None,224.52114820003044,None,224.52114820003044,None,224.52114820003044,None,,,,,,,,,,,,,,,,,,,,,,,,,,,,,,,,,,,,,,,,,,,alefn,001,2021_Sep_28_1933,shapka,2021.1.4,59.98080614949972,
1,5,pre,left,left.png,left.png,bas,Чашки,Шашки,tableware3.png,car2.png,animal2.png,music3.png,-298,-298,298,298,-316,316,-316,316,"[-200, 0]","[200, 0]","[104, 104]","[104, 104]","[104, 104]","[104, 104]",,,,,,,,,,,,,,,,,,,,,,,,,,,,,,,,,,0,9,9,4,,,,,,,,,,,,,,,,,,,,,,,,,,,227.468972499948,None,227.468972499948,None,227.468972499948,None,227.6728335999651,None,228.08071749994997,None,228.08071749994997,None,228.08071749994997,None,228.48939260002226,None,229.50356920005288,None,p,2.3217349000042304,229.50356920005288,None,229.50356920005288,None,229.50356920005288,None,229.50356920005288,None,229.50356920005288,None,,,,,,,,,,,,,,,,,,,,,,,,,,,,,,,,,,,,,,,,,,,alefn,001,2021_Sep_28_1933,shapka,2021.1.4,59.98080614949972,
2,5,pre,right,right.png,right.png,sup,Одежда,Невежда,clothes3.png,car1.png,tool1.png,car4.png,298,298,-298,-298,-316,316,-316,316,"[200, 0]","[-200, 0]","[104, 104]","[104, 104]","[104, 104]","[104, 104]",,,,,,,,,,,,,,,,,,,,,,,,,,,,,,,,,,0,10,10,15,,,,,,,,,,,,,,,,,,,,,,,,,,,231.89245659997687,None,231.89245659997687,None,231.89245659997687,None,232.10626260004938,None,232.5163360000588,None,232.5163360000588,None,232.5163360000588,None,232.9229503000388,None,233.93447580002248,None,a,2.4427092999685556,233.93447580002248,None,233.93447580002248,None,233.93447580002248,None,233.93447580002248,None,233.93447580002248,None,,,,,,,,,,,,,,,,,,,,,,,,,,,,,,,,,,,,,,,,,,,alefn,001,2021_Sep_28_1933,shapka,2021.1.4,59.98080614949972,
2,5,pre,right,right.png,right.png,sup,Посуда,Валюта,tableware2.png,animal2.png,music2.png,animal3.png,298,298,-298,-298,-316,316,-316,316,"[200, 0]","[-200, 0]","[104, 104]","[104, 104]","[104, 104]","[104, 104]",,,,,,,,,,,,,,,,,,,,,,,,,,,,,,,,,,0,11,11,13,,,,,,,,,,,,,,,,,,,,,,,,,,,236.44098640000448,None,236.44098640000448,None,236.44098640000448,None,236.65660260000732,None,237.06157370004803,None,237.06157370004803,None,237.06157370004803,None,237.47329340002034,None,238.4863382000476,None,a,3.41092789999675,238.4863382000476,None,238.4863382000476,None,238.4863382000476,None,238.4863382000476,None,238.4863382000476,None,,,,,,,,,,,,,,,,,,,,,,,,,,,,,,,,,,,,,,,,,,,alefn,001,2021_Sep_28_1933,shapka,2021.1.4,59.98080614949972,
2,6,abs,right,right.png,right.png,sup,Фрукты,Бухты,car8.png,music2.png,car2.png,car1.png,298,298,-298,-298,316,-316,316,-316,"[200, 0]","[-200, 0]","[104, 104]","[104, 104]","[104, 104]","[104, 104]",,,,,,,,,,,,,,,,,,,,,,,,,,,,,,,,,,0,12,12,9,,,,,,,,,,,,,,,,,,,,,,,,,,,241.96027919999324,None,241.96027919999324,None,241.96027919999324,None,242.17334730003495,None,242.5916803999571,None,242.5916803999571,None,242.5916803999571,None,243.0064860000275,None,244.02154670003802,None,a,2.9637805999955162,244.02154670003802,None,244.02154670003802,None,244.02154670003802,None,244.02154670003802,None,244.02154670003802,None,,,,,,,,,,,,,,,,,,,,,,,,,,,,,,,,,,,,,,,,,,,alefn,001,2021_Sep_28_1933,shapka,2021.1.4,59.98080614949972,
1,6,abs,left,left.png,left.png,bas,Яблоки,Пряники,tool1.png,tool4.png,car1.png,animal1.png,-298,-298,298,298,316,-316,316,-316,"[-200, 0]","[200, 0]","[104, 104]","[104, 104]","[104, 104]","[104, 104]",,,,,,,,,,,,,,,,,,,,,,,,,,,,,,,,,,0,13,13,0,,,,,,,,,,,,,,,,,,,,,,,,,,,247.0377416999545,None,247.0377416999545,None,247.0377416999545,None,247.24031849997118,None,247.6497141000582,None,247.6497141000582,None,247.6497141000582,None,248.05698660004418,None,249.07085949997418,None,a,1.6744424999924377,249.07085949997418,None,249.07085949997418,None,249.07085949997418,None,249.07085949997418,None,249.07085949997418,None,,,,,,,,,,,,,,,,,,,,,,,,,,,,,,,,,,,,,,,,,,,alefn,001,2021_Sep_28_1933,shapka,2021.1.4,59.98080614949972,
2,6,abs,right,right.png,right.png,bas,Яблоки,Пряники,animal4.png,music3.png,tool4.png,tool6.png,298,298,-298,-298,316,-316,316,-316,"[200, 0]","[-200, 0]","[104, 104]","[104, 104]","[104, 104]","[104, 104]",,,,,,,,,,,,,,,,,,,,,,,,,,,,,,,,,,0,14,14,8,,,,,,,,,,,,,,,,,,,,,,,,,,,250.8094839999685,None,250.8094839999685,None,250.8094839999685,None,251.02399410004728,None,251.42679169995245,None,251.42679169995245,None,251.42679169995245,None,251.8404884999618,None,252.8599798999494,None,a,2.893352299928665,252.8599798999494,None,252.8599798999494,None,252.8599798999494,None,252.8599798999494,None,252.8599798999494,None,,,,,,,,,,,,,,,,,,,,,,,,,,,,,,,,,,,,,,,,,,,alefn,001,2021_Sep_28_1933,shapka,2021.1.4,59.98080614949972,
2,5,pre,right,right.png,right.png,bas,Чашки,Шашки,tableware1.png,tool1.png,music5.png,music1.png,298,298,-298,-298,-316,316,-316,316,"[200, 0]","[-200, 0]","[104, 104]","[104, 104]","[104, 104]","[104, 104]",,,,,,,,,,,,,,,,,,,,,,,,,,,,,,,,,,0,15,15,12,,,,,,,,,,,,,,,,,,,,,,,,,,,255.8144319000421,None,255.8144319000421,None,255.8144319000421,None,256.0239770000335,None,256.4307485000463,None,256.4307485000463,None,256.4307485000463,None,256.84071420005057,None,257.85727559996303,None,p,1.3120451000286266,257.85727559996303,None,257.85727559996303,None,257.85727559996303,None,257.85727559996303,None,257.85727559996303,None,,,,,,,,,,,,,,,,,,,,,,,,,,,,,,,,,,,,,,,,,,,alefn,001,2021_Sep_28_1933,shapka,2021.1.4,59.98080614949972,
,,,,,,,,,,,,,,,,,,,,,,,,,,,,,,,,,,,,,,,,,,,,,,,,,,,,,,,,,,,,,,,,,,,,,,,,,,,,,,,,,,,,,,,,,,,,,,,,,,,,,,,,,,,,,,,,,,,,,,,,259.19087469996884,None,space,1318.6095494999317,259.19087469996884,None,,,,,,,,,,,,,,,,,,,,,,,,,,,,,,,,,,,,,alefn,001,2021_Sep_28_1933,shapka,2021.1.4,59.98080614949972,
2,9,pre,right,right.png,right.png,bas,Чашки,Шашки,tableware1.png,music4.png,music1.png,music6.png,298,298,-298,-298,-200,200,-200,200,"[200, 0]","[-200, 0]","[81, 81]","[81, 81]","[81, 81]","[81, 81]",6,music7.png,music8.png,tool10.png,car3.png,animal2.png,tool1.png,animal5.png,car9.png,298,298,-298,-298,298,298,-298,-298,-85,85,-85,85,316,-316,316,-316,"[81, 81]","[81, 81]","[81, 81]","[81, 81]","[81, 81]","[81, 81]","[81, 81]","[81, 81]",,,,,0,0,0,307,,,,,,,,,,,,,,,,,,,,,,,None,None,None,None,None,None,None,None,1578.4347093000542,None,1578.4347093000542,None,1578.4347093000542,None,1578.8324287000578,None,,,,,,,,,,,,,,,,,,,,,1579.8776504000416,None,None,1579.8776504000416,None,1579.8776504000416,None,1579.8776504000416,None,1579.8776504000416,None,1579.8776504000416,None,1579.8776504000416,None,1579.8776504000416,None,1579.8776504000416,None,1579.8776504000416,None,1579.8776504000416,None,1579.8776504000416,None,1579.8776504000416,None,1579.8776504000416,None,,,,,,,,alefn,001,2021_Sep_28_1933,shapka,2021.1.4,59.98080614949972,
2,10,abs,right,right.png,right.png,non,Рубашки,Барашки,animal8.png,car8.png,animal6.png,animal7.png,298,298,-298,-298,-316,316,-316,316,"[200, 0]","[-200, 0]","[81, 81]","[81, 81]","[81, 81]","[81, 81]",6,tool3.png,tool4.png,tool10.png,music2.png,animal5.png,animal9.png,animal1.png,animal3.png,298,298,-298,-298,298,298,-298,-298,85,-85,85,-85,-200,200,-200,200,"[81, 81]","[81, 81]","[81, 81]","[81, 81]","[81, 81]","[81, 81]","[81, 81]","[81, 81]",,,,,0,1,1,62,,,,,,,,,,,,,,,,,,,,,,,1583.8595617000246,None,1583.8595617000246,None,1583.8595617000246,None,1584.032711799955,None,1584.4367422000505,None,1584.4367422000505,None,1584.4367422000505,None,1584.8327902000165,None,,,,,,,,,,,,,,,,,,,,,1585.8688708000118,None,a,1585.8688708000118,None,1585.8688708000118,None,1585.8688708000118,None,1585.8688708000118,None,1585.8688708000118,None,1585.8688708000118,None,1585.8688708000118,None,1585.8688708000118,None,1585.8688708000118,None,1585.8688708000118,None,1585.8688708000118,None,1585.8688708000118,None,1585.8688708000118,None,1.8031570999883115,,,,,,,alefn,001,2021_Sep_28_1933,shapka,2021.1.4,59.98080614949972,
2,6,abs,right,right.png,right.png,non,Рубашки,Барашки,tool5.png,tool1.png,animal4.png,car1.png,298,298,-298,-298,-316,316,-316,316,"[200, 0]","[-200, 0]","[81, 81]","[81, 81]","[81, 81]","[81, 81]",2,None,None,None,None,None,None,None,None,298,298,-298,-298,298,298,-298,-298,-85,85,-85,85,-200,200,-200,200,"[81, 81]","[81, 81]","[81, 81]","[81, 81]","[81, 81]","[81, 81]","[81, 81]","[81, 81]",,,,,0,2,2,52,,,,,,,,,,,,,,,,,,,,,,,1587.7215191000141,None,1587.7215191000141,None,1587.7215191000141,None,1587.9326570000267,None,1588.3342657999601,None,1588.3342657999601,None,1588.3342657999601,None,1588.7495520999655,None,,,,,,,,,,,,,,,,,,,,,1589.7856492999708,None,a,1589.7856492999708,None,1589.7856492999708,None,1589.7856492999708,None,1589.7856492999708,None,1589.7856492999708,None,1589.7856492999708,None,1589.7856492999708,None,1589.7856492999708,None,1589.7856492999708,None,1589.7856492999708,None,1589.7856492999708,None,1589.7856492999708,None,1589.7856492999708,None,1.2302259999560192,,,,,,,alefn,001,2021_Sep_28_1933,shapka,2021.1.4,59.98080614949972,
2,7,pre,right,right.png,right.png,bas,Чашки,Шашки,tableware1.png,tool6.png,music10.png,car9.png,298,298,-298,-298,85,-85,85,-85,"[200, 0]","[-200, 0]","[81, 81]","[81, 81]","[81, 81]","[81, 81]",4,animal5.png,tool7.png,music1.png,tool2.png,None,None,None,None,298,298,-298,-298,298,298,-298,-298,-316,316,-316,316,200,-200,200,-200,"[81, 81]","[81, 81]","[81, 81]","[81, 81]","[81, 81]","[81, 81]","[81, 81]","[81, 81]",,,,,0,3,3,293,,,,,,,,,,,,,,,,,,,,,,,1591.0653532999568,None,1591.0653532999568,None,1591.0653532999568,None,1591.2663512000581,None,1591.6713046999648,None,1591.6713046999648,None,1591.6713046999648,None,1592.0830156999873,None,,,,,,,,,,,,,,,,,,,,,1593.1111730999546,None,p,1593.1111730999546,None,1593.1111730999546,None,1593.1111730999546,None,1593.1111730999546,None,1593.1111730999546,None,1593.1111730999546,None,1593.1111730999546,None,1593.1111730999546,None,1593.1111730999546,None,1593.1111730999546,None,1593.1111730999546,None,1593.1111730999546,None,1593.1111730999546,None,1.37666559999343,,,,,,,alefn,001,2021_Sep_28_1933,shapka,2021.1.4,59.98080614949972,
1,7,pre,left,left.png,left.png,bas,Чашки,Шашки,tableware1.png,music5.png,animal4.png,music10.png,-298,-298,298,298,85,-85,85,-85,"[-200, 0]","[200, 0]","[81, 81]","[81, 81]","[81, 81]","[81, 81]",4,car3.png,animal9.png,car1.png,music6.png,None,None,None,None,-298,-298,298,298,-298,-298,298,298,-316,316,-316,316,200,-200,200,-200,"[81, 81]","[81, 81]","[81, 81]","[81, 81]","[81, 81]","[81, 81]","[81, 81]","[81, 81]",,,,,0,4,4,179,,,,,,,,,,,,,,,,,,,,,,,1594.5369725000346,None,1594.5369725000346,None,1594.5369725000346,None,1594.7497238999931,None,1595.1513257999904,None,1595.1513257999904,None,1595.1513257999904,None,1595.5665287000593,None,,,,,,,,,,,,,,,,,,,,,1596.594593900023,None,p,1596.594593900023,None,1596.594593900023,None,1596.594593900023,None,1596.594593900023,None,1596.594593900023,None,1596.594593900023,None,1596.594593900023,None,1596.594593900023,None,1596.594593900023,None,1596.594593900023,None,1596.594593900023,None,1596.594593900023,None,1596.594593900023,None,0.5335168000310659,,,,,,,alefn,001,2021_Sep_28_1933,shapka,2021.1.4,59.98080614949972,
1,8,abs,left,left.png,left.png,non,Рубашки,Барашки,music7.png,animal1.png,animal7.png,animal6.png,-298,-298,298,298,316,-316,316,-316,"[-200, 0]","[200, 0]","[81, 81]","[81, 81]","[81, 81]","[81, 81]",4,music1.png,music5.png,tool2.png,car9.png,None,None,None,None,-298,-298,298,298,-298,-298,298,298,-85,85,-85,85,200,-200,200,-200,"[81, 81]","[81, 81]","[81, 81]","[81, 81]","[81, 81]","[81, 81]","[81, 81]","[81, 81]",,,,,0,5,5,6,,,,,,,,,,,,,,,,,,,,,,,1597.1704364999896,None,1597.1704364999896,None,1597.1704364999896,None,1597.383158099954,None,1597.7877045000205,None,1597.7877045000205,None,1597.7877045000205,None,1598.1998579000356,None,,,,,,,,,,,,,,,,,,,,,1599.2280293999938,None,a,1599.2280293999938,None,1599.2280293999938,None,1599.2280293999938,None,1599.2280293999938,None,1599.2280293999938,None,1599.2280293999938,None,1599.2280293999938,None,1599.2280293999938,None,1599.2280293999938,None,1599.2280293999938,None,1599.2280293999938,None,1599.2280293999938,None,1599.2280293999938,None,0.956019900040701,,,,,,,alefn,001,2021_Sep_28_1933,shapka,2021.1.4,59.98080614949972,
1,6,abs,left,left.png,left.png,non,Чашки,Шашки,animal5.png,music4.png,music9.png,music1.png,-298,-298,298,298,316,-316,316,-316,"[-200, 0]","[200, 0]","[81, 81]","[81, 81]","[81, 81]","[81, 81]",2,None,None,None,None,None,None,None,None,-298,-298,298,298,-298,-298,298,298,-85,85,-85,85,-200,200,-200,200,"[81, 81]","[81, 81]","[81, 81]","[81, 81]","[81, 81]","[81, 81]","[81, 81]","[81, 81]",,,,,0,6,6,29,,,,,,,,,,,,,,,,,,,,,,,1600.220206500031,None,1600.220206500031,None,1600.220206500031,None,1600.433290099958,None,1600.8333403000142,None,1600.8333403000142,None,1600.8333403000142,None,1601.2333476999775,None,,,,,,,,,,,,,,,,,,,,,1602.2466721000383,None,a,1602.2466721000383,None,1602.2466721000383,None,1602.2466721000383,None,1602.2466721000383,None,1602.2466721000383,None,1602.2466721000383,None,1602.2466721000383,None,1602.2466721000383,None,1602.2466721000383,None,1602.2466721000383,None,1602.2466721000383,None,1602.2466721000383,None,1602.2466721000383,None,1.1851582999806851,,,,,,,alefn,001,2021_Sep_28_1933,shapka,2021.1.4,59.98080614949972,
1,8,abs,left,left.png,left.png,non,Стулья,Брусья,car3.png,music1.png,music5.png,music2.png,-298,-298,298,298,316,-316,316,-316,"[-200, 0]","[200, 0]","[81, 81]","[81, 81]","[81, 81]","[81, 81]",4,car8.png,tool7.png,animal1.png,tool4.png,None,None,None,None,-298,-298,298,298,-298,-298,298,298,-85,85,-85,85,200,-200,200,-200,"[81, 81]","[81, 81]","[81, 81]","[81, 81]","[81, 81]","[81, 81]","[81, 81]","[81, 81]",,,,,0,7,7,19,,,,,,,,,,,,,,,,,,,,,,,1603.48047770001,None,1603.48047770001,None,1603.48047770001,None,1603.683428099961,None,1604.088068400044,None,1604.088068400044,None,1604.088068400044,None,1604.5001130000455,None,,,,,,,,,,,,,,,,,,,,,1605.52621000004,None,p,1605.52621000004,None,1605.52621000004,None,1605.52621000004,None,1605.52621000004,None,1605.52621000004,None,1605.52621000004,None,1605.52621000004,None,1605.52621000004,None,1605.52621000004,None,1605.52621000004,None,1605.52621000004,None,1605.52621000004,None,1605.52621000004,None,1.3937585999956354,,,,,,,alefn,001,2021_Sep_28_1933,shapka,2021.1.4,59.98080614949972,
1,5,pre,left,left.png,left.png,bas,Чашки,Шашки,tableware5.png,tool9.png,car7.png,car5.png,-298,-298,298,298,-316,316,-316,316,"[-200, 0]","[200, 0]","[81, 81]","[81, 81]","[81, 81]","[81, 81]",2,None,None,None,None,None,None,None,None,-298,-298,298,298,-298,-298,298,298,-85,85,-85,85,-200,200,-200,200,"[81, 81]","[81, 81]","[81, 81]","[81, 81]","[81, 81]","[81, 81]","[81, 81]","[81, 81]",,,,,0,8,8,170,,,,,,,,,,,,,,,,,,,,,,,1606.973779699998,None,1606.973779699998,None,1606.973779699998,None,1607.1836937000044,None,1607.5881909000454,None,1607.5881909000454,None,1607.5881909000454,None,1608.0002648000373,None,,,,,,,,,,,,,,,,,,,,,1609.027686299989,None,p,1609.027686299989,None,1609.027686299989,None,1609.027686299989,None,1609.027686299989,None,1609.027686299989,None,1609.027686299989,None,1609.027686299989,None,1609.027686299989,None,1609.027686299989,None,1609.027686299989,None,1609.027686299989,None,1609.027686299989,None,1609.027686299989,None,0.932350300019607,,,,,,,alefn,001,2021_Sep_28_1933,shapka,2021.1.4,59.98080614949972,
1,10,abs,left,left.png,left.png,non,Стулья,Брусья,car5.png,music2.png,animal10.png,car4.png,-298,-298,298,298,-316,316,-316,316,"[-200, 0]","[200, 0]","[81, 81]","[81, 81]","[81, 81]","[81, 81]",6,tool6.png,music7.png,music1.png,music3.png,animal1.png,animal5.png,tool9.png,tool8.png,-298,-298,298,298,-298,-298,298,298,85,-85,85,-85,-200,200,-200,200,"[81, 81]","[81, 81]","[81, 81]","[81, 81]","[81, 81]","[81, 81]","[81, 81]","[81, 81]",,,,,0,9,9,26,,,,,,,,,,,,,,,,,,,,,,,1610.0199416000396,None,1610.0199416000396,None,1610.0199416000396,None,1610.2337200000184,None,1610.639974800055,None,1610.639974800055,None,1610.639974800055,None,1611.05044120003,None,,,,,,,,,,,,,,,,,,,,,1612.0786385999527,None,a,1612.0786385999527,None,1612.0786385999527,None,1612.0786385999527,None,1612.0786385999527,None,1612.0786385999527,None,1612.0786385999527,None,1612.0786385999527,None,1612.0786385999527,None,1612.0786385999527,None,1612.0786385999527,None,1612.0786385999527,None,1612.0786385999527,None,1612.0786385999527,None,1.6013064000289887,,,,,,,alefn,001,2021_Sep_28_1933,shapka,2021.1.4,59.98080614949972,
1,9,pre,left,left.png,left.png,bas,Стулья,Брусья,furniture2.png,animal8.png,animal10.png,animal4.png,-298,-298,298,298,85,-85,85,-85,"[-200, 0]","[200, 0]","[81, 81]","[81, 81]","[81, 81]","[81, 81]",6,music1.png,animal5.png,music9.png,music7.png,car6.png,music10.png,animal2.png,tool3.png,-298,-298,298,298,-298,-298,298,298,316,-316,316,-316,-200,200,-200,200,"[81, 81]","[81, 81]","[81, 81]","[81, 81]","[81, 81]","[81, 81]","[81, 81]","[81, 81]",,,,,0,10,10,162,,,,,,,,,,,,,,,,,,,,,,,1613.7286686999723,None,1613.7286686999723,None,1613.7286686999723,None,1613.9340241999598,None,1614.335334100062,None,1614.335334100062,None,1614.335334100062,None,1614.750668499968,None,,,,,,,,,,,,,,,,,,,,,1615.7808820999926,None,p,1615.7808820999926,None,1615.7808820999926,None,1615.7808820999926,None,1615.7808820999926,None,1615.7808820999926,None,1615.7808820999926,None,1615.7808820999926,None,1615.7808820999926,None,1615.7808820999926,None,1615.7808820999926,None,1615.7808820999926,None,1615.7808820999926,None,1615.7808820999926,None,1.5633063000859693,,,,,,,alefn,001,2021_Sep_28_1933,shapka,2021.1.4,59.98080614949972,
1,7,pre,left,left.png,left.png,bas,Стулья,Брусья,furniture5.png,music10.png,car7.png,tool8.png,-298,-298,298,298,85,-85,85,-85,"[-200, 0]","[200, 0]","[81, 81]","[81, 81]","[81, 81]","[81, 81]",4,music7.png,tool5.png,music1.png,music9.png,None,None,None,None,-298,-298,298,298,-298,-298,298,298,-316,316,-316,316,200,-200,200,-200,"[81, 81]","[81, 81]","[81, 81]","[81, 81]","[81, 81]","[81, 81]","[81, 81]","[81, 81]",,,,,0,11,11,152,,,,,,,,,,,,,,,,,,,,,,,1617.3889471000293,None,1617.3889471000293,None,1617.3889471000293,None,1617.600852200063,None,1618.0020682000322,None,1618.0020682000322,None,1618.0020682000322,None,1618.4175433999626,None,,,,,,,,,,,,,,,,,,,,,1619.4401722999755,None,p,1619.4401722999755,None,1619.4401722999755,None,1619.4401722999755,None,1619.4401722999755,None,1619.4401722999755,None,1619.4401722999755,None,1619.4401722999755,None,1619.4401722999755,None,1619.4401722999755,None,1619.4401722999755,None,1619.4401722999755,None,1619.4401722999755,None,1619.4401722999755,None,1.023798100068234,,,,,,,alefn,001,2021_Sep_28_1933,shapka,2021.1.4,59.98080614949972,
2,6,abs,right,right.png,right.png,non,Рубашки,Барашки,car2.png,music3.png,car1.png,car4.png,298,298,-298,-298,-316,316,-316,316,"[200, 0]","[-200, 0]","[81, 81]","[81, 81]","[81, 81]","[81, 81]",2,None,None,None,None,None,None,None,None,298,298,-298,-298,298,298,-298,-298,-85,85,-85,85,-200,200,-200,200,"[81, 81]","[81, 81]","[81, 81]","[81, 81]","[81, 81]","[81, 81]","[81, 81]","[81, 81]",,,,,0,12,12,53,,,,,,,,,,,,,,,,,,,,,,,1620.5215909000253,None,1620.5215909000253,None,1620.5215909000253,None,1620.7342994000064,None,1621.1387675000587,None,1621.1387675000587,None,1621.1387675000587,None,1621.5509105999954,None,,,,,,,,,,,,,,,,,,,,,1622.5749430999858,None,a,1622.5749430999858,None,1622.5749430999858,None,1622.5749430999858,None,1622.5749430999858,None,1622.5749430999858,None,1622.5749430999858,None,1622.5749430999858,None,1622.5749430999858,None,1622.5749430999858,None,1622.5749430999858,None,1622.5749430999858,None,1622.5749430999858,None,1622.5749430999858,None,1.265026199980639,,,,,,,alefn,001,2021_Sep_28_1933,shapka,2021.1.4,59.98080614949972,
2,6,abs,right,right.png,right.png,non,Стулья,Брусья,car5.png,car2.png,animal10.png,car9.png,298,298,-298,-298,-316,316,-316,316,"[200, 0]","[-200, 0]","[81, 81]","[81, 81]","[81, 81]","[81, 81]",2,None,None,None,None,None,None,None,None,298,298,-298,-298,298,298,-298,-298,-85,85,-85,85,-200,200,-200,200,"[81, 81]","[81, 81]","[81, 81]","[81, 81]","[81, 81]","[81, 81]","[81, 81]","[81, 81]",,,,,0,13,13,64,,,,,,,,,,,,,,,,,,,,,,,1623.916380599956,None,1623.916380599956,None,1623.916380599956,None,1624.1176801000256,None,1624.5222624000162,None,1624.5222624000162,None,1624.5222624000162,None,1624.9344486000482,None,,,,,,,,,,,,,,,,,,,,,1625.9529412999982,None,a,1625.9529412999982,None,1625.9529412999982,None,1625.9529412999982,None,1625.9529412999982,None,1625.9529412999982,None,1625.9529412999982,None,1625.9529412999982,None,1625.9529412999982,None,1625.9529412999982,None,1625.9529412999982,None,1625.9529412999982,None,1625.9529412999982,None,1625.9529412999982,None,1.1589770999271423,,,,,,,alefn,001,2021_Sep_28_1933,shapka,2021.1.4,59.98080614949972,
2,7,pre,right,right.png,right.png,bas,Яблоки,Пряники,fruit3.png,music10.png,music1.png,music8.png,298,298,-298,-298,-85,85,-85,85,"[200, 0]","[-200, 0]","[81, 81]","[81, 81]","[81, 81]","[81, 81]",4,car5.png,music4.png,tool9.png,tool1.png,None,None,None,None,298,298,-298,-298,298,298,-298,-298,-316,316,-316,316,200,-200,200,-200,"[81, 81]","[81, 81]","[81, 81]","[81, 81]","[81, 81]","[81, 81]","[81, 81]","[81, 81]",,,,,0,14,14,323,,,,,,,,,,,,,,,,,,,,,,,1627.1772470000433,None,1627.1772470000433,None,1627.1772470000433,None,1627.3844775999896,None,1627.794056499959,None,1627.794056499959,None,1627.794056499959,None,1628.2011841000058,None,,,,,,,,,,,,,,,,,,,,,1629.2361335000023,None,p,1629.2361335000023,None,1629.2361335000023,None,1629.2361335000023,None,1629.2361335000023,None,1629.2361335000023,None,1629.2361335000023,None,1629.2361335000023,None,1629.2361335000023,None,1629.2361335000023,None,1629.2361335000023,None,1629.2361335000023,None,1629.2361335000023,None,1629.2361335000023,None,0.9959059000248089,,,,,,,alefn,001,2021_Sep_28_1933,shapka,2021.1.4,59.98080614949972,
1,5,pre,left,left.png,left.png,bas,Яблоки,Пряники,fruit4.png,music9.png,tool1.png,tool8.png,-298,-298,298,298,316,-316,316,-316,"[-200, 0]","[200, 0]","[81, 81]","[81, 81]","[81, 81]","[81, 81]",2,None,None,None,None,None,None,None,None,-298,-298,298,298,-298,-298,298,298,85,-85,85,-85,200,-200,200,-200,"[81, 81]","[81, 81]","[81, 81]","[81, 81]","[81, 81]","[81, 81]","[81, 81]","[81, 81]",,,,,0,15,15,202,,,,,,,,,,,,,,,,,,,,,,,1630.2718299999833,None,1630.2718299999833,None,1630.2718299999833,None,1630.4846290999558,None,1630.8863021000288,None,1630.8863021000288,None,1630.8863021000288,None,1631.301315800054,None,,,,,,,,,,,,,,,,,,,,,1632.3269967000233,None,p,1632.3269967000233,None,1632.3269967000233,None,1632.3269967000233,None,1632.3269967000233,None,1632.3269967000233,None,1632.3269967000233,None,1632.3269967000233,None,1632.3269967000233,None,1632.3269967000233,None,1632.3269967000233,None,1632.3269967000233,None,1632.3269967000233,None,1632.3269967000233,None,0.7369260999839753,,,,,,,alefn,001,2021_Sep_28_1933,shapka,2021.1.4,59.98080614949972,
2,5,pre,right,right.png,right.png,bas,Яблоки,Пряники,fruit4.png,music9.png,tool4.png,car7.png,298,298,-298,-298,316,-316,316,-316,"[200, 0]","[-200, 0]","[81, 81]","[81, 81]","[81, 81]","[81, 81]",2,None,None,None,None,None,None,None,None,298,298,-298,-298,298,298,-298,-298,85,-85,85,-85,200,-200,200,-200,"[81, 81]","[81, 81]","[81, 81]","[81, 81]","[81, 81]","[81, 81]","[81, 81]","[81, 81]",,,,,0,16,16,314,,,,,,,,,,,,,,,,,,,,,,,1633.121348900022,None,1633.121348900022,None,1633.121348900022,None,1633.3347414999735,None,1633.7368584000506,None,1633.7368584000506,None,1633.7368584000506,None,1634.1515690999804,None,,,,,,,,,,,,,,,,,,,,,1635.1708539000247,None,p,1635.1708539000247,None,1635.1708539000247,None,1635.1708539000247,None,1635.1708539000247,None,1635.1708539000247,None,1635.1708539000247,None,1635.1708539000247,None,1635.1708539000247,None,1635.1708539000247,None,1635.1708539000247,None,1635.1708539000247,None,1635.1708539000247,None,1635.1708539000247,None,0.6130231000715867,,,,,,,alefn,001,2021_Sep_28_1933,shapka,2021.1.4,59.98080614949972,
2,7,pre,right,right.png,right.png,bas,Рубашки,Барашки,clothes1.png,car8.png,car6.png,tool1.png,298,298,-298,-298,316,-316,316,-316,"[200, 0]","[-200, 0]","[81, 81]","[81, 81]","[81, 81]","[81, 81]",4,music4.png,tool9.png,tool6.png,music8.png,None,None,None,None,298,298,-298,-298,298,298,-298,-298,-85,85,-85,85,200,-200,200,-200,"[81, 81]","[81, 81]","[81, 81]","[81, 81]","[81, 81]","[81, 81]","[81, 81]","[81, 81]",,,,,0,17,17,233,,,,,,,,,,,,,,,,,,,,,,,1635.8460877999896,None,1635.8460877999896,None,1635.8460877999896,None,1636.051523000002,None,1636.4577275000047,None,1636.4577275000047,None,1636.4577275000047,None,1636.868246500031,None,,,,,,,,,,,,,,,,,,,,,1637.8965666999575,None,p,1637.8965666999575,None,1637.8965666999575,None,1637.8965666999575,None,1637.8965666999575,None,1637.8965666999575,None,1637.8965666999575,None,1637.8965666999575,None,1637.8965666999575,None,1637.8965666999575,None,1637.8965666999575,None,1637.8965666999575,None,1637.8965666999575,None,1637.8965666999575,None,0.9111952999373898,,,,,,,alefn,001,2021_Sep_28_1933,shapka,2021.1.4,59.98080614949972,
1,7,pre,left,left.png,left.png,bas,Стулья,Брусья,furniture1.png,car2.png,tool4.png,animal3.png,-298,-298,298,298,-85,85,-85,85,"[-200, 0]","[200, 0]","[81, 81]","[81, 81]","[81, 81]","[81, 81]",4,car10.png,animal7.png,music9.png,animal5.png,None,None,None,None,-298,-298,298,298,-298,-298,298,298,316,-316,316,-316,200,-200,200,-200,"[81, 81]","[81, 81]","[81, 81]","[81, 81]","[81, 81]","[81, 81]","[81, 81]","[81, 81]",,,,,0,18,18,147,,,,,,,,,,,,,,,,,,,,,,,1638.8753245000262,None,1638.8753245000262,None,1638.8753245000262,None,1639.0851401999826,None,1639.490263900021,None,1639.490263900021,None,1639.490263900021,None,1639.9016964000184,None,,,,,,,,,,,,,,,,,,,,,1640.9406935999868,None,p,1640.9406935999868,None,1640.9406935999868,None,1640.9406935999868,None,1640.9406935999868,None,1640.9406935999868,None,1640.9406935999868,None,1640.9406935999868,None,1640.9406935999868,None,1640.9406935999868,None,1640.9406935999868,None,1640.9406935999868,None,1640.9406935999868,None,1640.9406935999868,None,0.9073138000676408,,,,,,,alefn,001,2021_Sep_28_1933,shapka,2021.1.4,59.98080614949972,
2,6,abs,right,right.png,right.png,non,Стулья,Брусья,car8.png,animal2.png,music9.png,tool1.png,298,298,-298,-298,-316,316,-316,316,"[200, 0]","[-200, 0]","[81, 81]","[81, 81]","[81, 81]","[81, 81]",2,None,None,None,None,None,None,None,None,298,298,-298,-298,298,298,-298,-298,-85,85,-85,85,-200,200,-200,200,"[81, 81]","[81, 81]","[81, 81]","[81, 81]","[81, 81]","[81, 81]","[81, 81]","[81, 81]",,,,,0,19,19,66,,,,,,,,,,,,,,,,,,,,,,,1641.8962635999778,None,1641.8962635999778,None,1641.8962635999778,None,1642.1019281999907,None,1642.5030209999532,None,1642.5030209999532,None,1642.5030209999532,None,1642.918609400047,None,,,,,,,,,,,,,,,,,,,,,1643.9322313000448,None,a,1643.9322313000448,None,1643.9322313000448,None,1643.9322313000448,None,1643.9322313000448,None,1643.9322313000448,None,1643.9322313000448,None,1643.9322313000448,None,1643.9322313000448,None,1643.9322313000448,None,1643.9322313000448,None,1643.9322313000448,None,1643.9322313000448,None,1643.9322313000448,None,1.4035735999932513,,,,,,,alefn,001,2021_Sep_28_1933,shapka,2021.1.4,59.98080614949972,
2,9,pre,right,right.png,right.png,bas,Рубашки,Барашки,clothes2.png,animal3.png,animal4.png,car6.png,298,298,-298,-298,-85,85,-85,85,"[200, 0]","[-200, 0]","[81, 81]","[81, 81]","[81, 81]","[81, 81]",6,animal7.png,car10.png,music1.png,animal8.png,music9.png,tool1.png,car2.png,animal5.png,298,298,-298,-298,298,298,-298,-298,316,-316,316,-316,-200,200,-200,200,"[81, 81]","[81, 81]","[81, 81]","[81, 81]","[81, 81]","[81, 81]","[81, 81]","[81, 81]",,,,,0,20,20,248,,,,,,,,,,,,,,,,,,,,,,,1645.376080099959,None,1645.376080099959,None,1645.376080099959,None,1645.585315400036,None,1645.9898163999896,None,1645.9898163999896,None,1645.9898163999896,None,1646.401990900049,None,,,,,,,,,,,,,,,,,,,,,1647.4347248000558,None,p,1647.4347248000558,None,1647.4347248000558,None,1647.4347248000558,None,1647.4347248000558,None,1647.4347248000558,None,1647.4347248000558,None,1647.4347248000558,None,1647.4347248000558,None,1647.4347248000558,None,1647.4347248000558,None,1647.4347248000558,None,1647.4347248000558,None,1647.4347248000558,None,1.565328299999237,,,,,,,alefn,001,2021_Sep_28_1933,shapka,2021.1.4,59.98080614949972,
2,7,pre,right,right.png,right.png,bas,Яблоки,Пряники,fruit2.png,tool9.png,car1.png,car3.png,298,298,-298,-298,-316,316,-316,316,"[200, 0]","[-200, 0]","[81, 81]","[81, 81]","[81, 81]","[81, 81]",4,music2.png,music10.png,car4.png,animal7.png,None,None,None,None,298,298,-298,-298,298,298,-298,-298,85,-85,85,-85,-200,200,-200,200,"[81, 81]","[81, 81]","[81, 81]","[81, 81]","[81, 81]","[81, 81]","[81, 81]","[81, 81]",,,,,0,21,21,332,,,,,,,,,,,,,,,,,,,,,,,1649.0431565999752,None,1649.0431565999752,None,1649.0431565999752,None,1649.2522197000217,None,1649.6580024999566,None,1649.6580024999566,None,1649.6580024999566,None,1650.0689055999974,None,,,,,,,,,,,,,,,,,,,,,1651.1214174999623,None,p,1651.1214174999623,None,1651.1214174999623,None,1651.1214174999623,None,1651.1214174999623,None,1651.1214174999623,None,1651.1214174999623,None,1651.1214174999623,None,1651.1214174999623,None,1651.1214174999623,None,1651.1214174999623,None,1651.1214174999623,None,1651.1214174999623,None,1651.1214174999623,None,2.3825837000040337,,,,,,,alefn,001,2021_Sep_28_1933,shapka,2021.1.4,59.98080614949972,
1,8,abs,left,left.png,left.png,non,Рубашки,Барашки,music7.png,tool7.png,car1.png,music6.png,-298,-298,298,298,316,-316,316,-316,"[-200, 0]","[200, 0]","[81, 81]","[81, 81]","[81, 81]","[81, 81]",4,animal2.png,music4.png,tool9.png,tool1.png,None,None,None,None,-298,-298,298,298,-298,-298,298,298,85,-85,85,-85,200,-200,200,-200,"[81, 81]","[81, 81]","[81, 81]","[81, 81]","[81, 81]","[81, 81]","[81, 81]","[81, 81]",,,,,0,22,22,4,,,,,,,,,,,,,,,,,,,,,,,1653.5560899999691,None,1653.5560899999691,None,1653.5560899999691,None,1653.7689679999603,None,1654.1737416000105,None,1654.1737416000105,None,1654.1737416000105,None,1654.585670899949,None,,,,,,,,,,,,,,,,,,,,,1655.6152173000155,None,a,1655.6152173000155,None,1655.6152173000155,None,1655.6152173000155,None,1655.6152173000155,None,1655.6152173000155,None,1655.6152173000155,None,1655.6152173000155,None,1655.6152173000155,None,1655.6152173000155,None,1655.6152173000155,None,1655.6152173000155,None,1655.6152173000155,None,1655.6152173000155,None,2.1769293000688776,,,,,,,alefn,001,2021_Sep_28_1933,shapka,2021.1.4,59.98080614949972,
1,7,pre,left,left.png,left.png,bas,Рубашки,Барашки,clothes2.png,tool3.png,car4.png,car1.png,-298,-298,298,298,316,-316,316,-316,"[-200, 0]","[200, 0]","[81, 81]","[81, 81]","[81, 81]","[81, 81]",4,tool2.png,car6.png,animal5.png,car7.png,None,None,None,None,-298,-298,298,298,-298,-298,298,298,85,-85,85,-85,200,-200,200,-200,"[81, 81]","[81, 81]","[81, 81]","[81, 81]","[81, 81]","[81, 81]","[81, 81]","[81, 81]",,,,,0,23,23,120,,,,,,,,,,,,,,,,,,,,,,,1657.8552142999833,None,1657.8552142999833,None,1657.8552142999833,None,1658.0691409000428,None,1658.470843899995,None,1658.470843899995,None,1658.470843899995,None,1658.8859662000323,None,,,,,,,,,,,,,,,,,,,,,1659.913975100033,None,p,1659.913975100033,None,1659.913975100033,None,1659.913975100033,None,1659.913975100033,None,1659.913975100033,None,1659.913975100033,None,1659.913975100033,None,1659.913975100033,None,1659.913975100033,None,1659.913975100033,None,1659.913975100033,None,1659.913975100033,None,1659.913975100033,None,1.0219745999202132,,,,,,,alefn,001,2021_Sep_28_1933,shapka,2021.1.4,59.98080614949972,
2,9,pre,right,right.png,right.png,bas,Яблоки,Пряники,fruit4.png,music10.png,animal5.png,tool3.png,298,298,-298,-298,200,-200,200,-200,"[200, 0]","[-200, 0]","[81, 81]","[81, 81]","[81, 81]","[81, 81]",6,animal9.png,music7.png,music1.png,car6.png,animal8.png,tool4.png,music2.png,car1.png,298,298,-298,-298,298,298,-298,-298,85,-85,85,-85,-316,316,-316,316,"[81, 81]","[81, 81]","[81, 81]","[81, 81]","[81, 81]","[81, 81]","[81, 81]","[81, 81]",,,,,0,24,24,339,,,,,,,,,,,,,,,,,,,,,,,1660.9786953000585,None,1660.9786953000585,None,1660.9786953000585,None,1661.1860847000498,None,1661.5921126999892,None,1661.5921126999892,None,1661.5921126999892,None,1662.002649400034,None,,,,,,,,,,,,,,,,,,,,,1663.040251199971,None,p,1663.040251199971,None,1663.040251199971,None,1663.040251199971,None,1663.040251199971,None,1663.040251199971,None,1663.040251199971,None,1663.040251199971,None,1663.040251199971,None,1663.040251199971,None,1663.040251199971,None,1663.040251199971,None,1663.040251199971,None,1663.040251199971,None,0.7596973999170586,,,,,,,alefn,001,2021_Sep_28_1933,shapka,2021.1.4,59.98080614949972,
1,9,pre,left,left.png,left.png,bas,Рубашки,Барашки,clothes2.png,animal8.png,music10.png,car2.png,-298,-298,298,298,-85,85,-85,85,"[-200, 0]","[200, 0]","[81, 81]","[81, 81]","[81, 81]","[81, 81]",6,animal3.png,music1.png,car1.png,animal6.png,animal5.png,car4.png,tool9.png,car7.png,-298,-298,298,298,-298,-298,298,298,316,-316,316,-316,200,-200,200,-200,"[81, 81]","[81, 81]","[81, 81]","[81, 81]","[81, 81]","[81, 81]","[81, 81]","[81, 81]",,,,,0,25,25,128,,,,,,,,,,,,,,,,,,,,,,,1663.842063399963,None,1663.842063399963,None,1663.842063399963,None,1664.052741099964,None,1664.4574298999505,None,1664.4574298999505,None,1664.4574298999505,None,1664.8695189000573,None,,,,,,,,,,,,,,,,,,,,,1665.903978700051,None,p,1665.903978700051,None,1665.903978700051,None,1665.903978700051,None,1665.903978700051,None,1665.903978700051,None,1665.903978700051,None,1665.903978700051,None,1665.903978700051,None,1665.903978700051,None,1665.903978700051,None,1665.903978700051,None,1665.903978700051,None,1665.903978700051,None,1.3519270999822766,,,,,,,alefn,001,2021_Sep_28_1933,shapka,2021.1.4,59.98080614949972,
1,5,pre,left,left.png,left.png,bas,Яблоки,Пряники,fruit3.png,animal7.png,car1.png,car2.png,-298,-298,298,298,316,-316,316,-316,"[-200, 0]","[200, 0]","[81, 81]","[81, 81]","[81, 81]","[81, 81]",2,None,None,None,None,None,None,None,None,-298,-298,298,298,-298,-298,298,298,85,-85,85,-85,200,-200,200,-200,"[81, 81]","[81, 81]","[81, 81]","[81, 81]","[81, 81]","[81, 81]","[81, 81]","[81, 81]",,,,,0,26,26,196,,,,,,,,,,,,,,,,,,,,,,,1667.306896800059,None,1667.306896800059,None,1667.306896800059,None,1667.5196912999963,None,1667.9255381999537,None,1667.9255381999537,None,1667.9255381999537,None,1668.3362368999515,None,,,,,,,,,,,,,,,,,,,,,1669.3546163999708,None,p,1669.3546163999708,None,1669.3546163999708,None,1669.3546163999708,None,1669.3546163999708,None,1669.3546163999708,None,1669.3546163999708,None,1669.3546163999708,None,1669.3546163999708,None,1669.3546163999708,None,1669.3546163999708,None,1669.3546163999708,None,1669.3546163999708,None,1669.3546163999708,None,0.5572816000785679,,,,,,,alefn,001,2021_Sep_28_1933,shapka,2021.1.4,59.98080614949972,
2,5,pre,right,right.png,right.png,bas,Стулья,Брусья,furniture4.png,animal1.png,car4.png,car5.png,298,298,-298,-298,316,-316,316,-316,"[200, 0]","[-200, 0]","[81, 81]","[81, 81]","[81, 81]","[81, 81]",2,None,None,None,None,None,None,None,None,298,298,-298,-298,298,298,-298,-298,85,-85,85,-85,200,-200,200,-200,"[81, 81]","[81, 81]","[81, 81]","[81, 81]","[81, 81]","[81, 81]","[81, 81]","[81, 81]",,,,,0,27,27,255,,,,,,,,,,,,,,,,,,,,,,,1669.9718286000425,None,1669.9718286000425,None,1669.9718286000425,None,1670.1862348000286,None,1670.5937624999788,None,1670.5937624999788,None,1670.5937624999788,None,1671.003069599974,None,,,,,,,,,,,,,,,,,,,,,1672.022511600051,None,p,1672.022511600051,None,1672.022511600051,None,1672.022511600051,None,1672.022511600051,None,1672.022511600051,None,1672.022511600051,None,1672.022511600051,None,1672.022511600051,None,1672.022511600051,None,1672.022511600051,None,1672.022511600051,None,1672.022511600051,None,1672.022511600051,None,0.82534070010297,,,,,,,alefn,001,2021_Sep_28_1933,shapka,2021.1.4,59.98080614949972,
2,5,pre,right,right.png,right.png,bas,Яблоки,Пряники,fruit4.png,music10.png,music1.png,music6.png,298,298,-298,-298,316,-316,316,-316,"[200, 0]","[-200, 0]","[81, 81]","[81, 81]","[81, 81]","[81, 81]",2,None,None,None,None,None,None,None,None,298,298,-298,-298,298,298,-298,-298,85,-85,85,-85,200,-200,200,-200,"[81, 81]","[81, 81]","[81, 81]","[81, 81]","[81, 81]","[81, 81]","[81, 81]","[81, 81]",,,,,0,28,28,319,,,,,,,,,,,,,,,,,,,,,,,1672.8950243999716,None,1672.8950243999716,None,1672.8950243999716,None,1673.103380399989,None,1673.512796199997,None,1673.512796199997,None,1673.512796199997,None,1673.9198393999832,None,,,,,,,,,,,,,,,,,,,,,1674.9437952999724,None,p,1674.9437952999724,None,1674.9437952999724,None,1674.9437952999724,None,1674.9437952999724,None,1674.9437952999724,None,1674.9437952999724,None,1674.9437952999724,None,1674.9437952999724,None,1674.9437952999724,None,1674.9437952999724,None,1674.9437952999724,None,1674.9437952999724,None,1674.9437952999724,None,0.9359112000092864,,,,,,,alefn,001,2021_Sep_28_1933,shapka,2021.1.4,59.98080614949972,
1,6,abs,left,left.png,left.png,non,Рубашки,Барашки,car6.png,car3.png,tool5.png,tool9.png,-298,-298,298,298,-316,316,-316,316,"[-200, 0]","[200, 0]","[81, 81]","[81, 81]","[81, 81]","[81, 81]",2,None,None,None,None,None,None,None,None,-298,-298,298,298,-298,-298,298,298,-85,85,-85,85,-200,200,-200,200,"[81, 81]","[81, 81]","[81, 81]","[81, 81]","[81, 81]","[81, 81]","[81, 81]","[81, 81]",,,,,0,29,29,3,,,,,,,,,,,,,,,,,,,,,,,1675.9312832000433,None,1675.9312832000433,None,1675.9312832000433,None,1676.1363282999955,None,1676.5516201000428,None,1676.5516201000428,None,1676.5516201000428,None,1676.953313200036,None,,,,,,,,,,,,,,,,,,,,,1677.967237600009,None,a,1677.967237600009,None,1677.967237600009,None,1677.967237600009,None,1677.967237600009,None,1677.967237600009,None,1677.967237600009,None,1677.967237600009,None,1677.967237600009,None,1677.967237600009,None,1677.967237600009,None,1677.967237600009,None,1677.967237600009,None,1677.967237600009,None,1.1685411999933422,,,,,,,alefn,001,2021_Sep_28_1933,shapka,2021.1.4,59.98080614949972,
1,5,pre,left,left.png,left.png,bas,Чашки,Шашки,tableware2.png,animal10.png,car1.png,animal7.png,-298,-298,298,298,-316,316,-316,316,"[-200, 0]","[200, 0]","[81, 81]","[81, 81]","[81, 81]","[81, 81]",2,None,None,None,None,None,None,None,None,-298,-298,298,298,-298,-298,298,298,-85,85,-85,85,-200,200,-200,200,"[81, 81]","[81, 81]","[81, 81]","[81, 81]","[81, 81]","[81, 81]","[81, 81]","[81, 81]",,,,,0,30,30,166,,,,,,,,,,,,,,,,,,,,,,,1679.1957812999608,None,1679.1957812999608,None,1679.1957812999608,None,1679.4036538000219,None,1679.8179787000408,None,1679.8179787000408,None,1679.8179787000408,None,1680.2201325000497,None,,,,,,,,,,,,,,,,,,,,,1681.23496469995,None,p,1681.23496469995,None,1681.23496469995,None,1681.23496469995,None,1681.23496469995,None,1681.23496469995,None,1681.23496469995,None,1681.23496469995,None,1681.23496469995,None,1681.23496469995,None,1681.23496469995,None,1681.23496469995,None,1681.23496469995,None,1681.23496469995,None,0.892876600031741,,,,,,,alefn,001,2021_Sep_28_1933,shapka,2021.1.4,59.98080614949972,
2,9,pre,right,right.png,right.png,bas,Яблоки,Пряники,fruit3.png,tool2.png,tool4.png,car10.png,298,298,-298,-298,-200,200,-200,200,"[200, 0]","[-200, 0]","[81, 81]","[81, 81]","[81, 81]","[81, 81]",6,tool9.png,music7.png,car1.png,tool1.png,music6.png,animal3.png,music5.png,car8.png,298,298,-298,-298,298,298,-298,-298,85,-85,85,-85,-316,316,-316,316,"[81, 81]","[81, 81]","[81, 81]","[81, 81]","[81, 81]","[81, 81]","[81, 81]","[81, 81]",,,,,0,31,31,333,,,,,,,,,,,,,,,,,,,,,,,1682.1961789999623,None,1682.1961789999623,None,1682.1961789999623,None,1682.4036922999658,None,1682.8093659000006,None,1682.8093659000006,None,1682.8093659000006,None,1683.2203593000304,None,,,,,,,,,,,,,,,,,,,,,1684.2559365000343,None,p,1684.2559365000343,None,1684.2559365000343,None,1684.2559365000343,None,1684.2559365000343,None,1684.2559365000343,None,1684.2559365000343,None,1684.2559365000343,None,1684.2559365000343,None,1684.2559365000343,None,1684.2559365000343,None,1684.2559365000343,None,1684.2559365000343,None,1684.2559365000343,None,0.5919596999883652,,,,,,,alefn,001,2021_Sep_28_1933,shapka,2021.1.4,59.98080614949972,
1,5,pre,left,left.png,left.png,bas,Стулья,Брусья,furniture1.png,animal10.png,animal8.png,music9.png,-298,-298,298,298,316,-316,316,-316,"[-200, 0]","[200, 0]","[81, 81]","[81, 81]","[81, 81]","[81, 81]",2,None,None,None,None,None,None,None,None,-298,-298,298,298,-298,-298,298,298,85,-85,85,-85,200,-200,200,-200,"[81, 81]","[81, 81]","[81, 81]","[81, 81]","[81, 81]","[81, 81]","[81, 81]","[81, 81]",,,,,0,32,32,140,,,,,,,,,,,,,,,,,,,,,,,1684.8909608999966,None,1684.8909608999966,None,1684.8909608999966,None,1685.1036902000196,None,1685.5098133999854,None,1685.5098133999854,None,1685.5098133999854,None,1685.920418099966,None,,,,,,,,,,,,,,,,,,,,,1686.9399646000238,None,p,1686.9399646000238,None,1686.9399646000238,None,1686.9399646000238,None,1686.9399646000238,None,1686.9399646000238,None,1686.9399646000238,None,1686.9399646000238,None,1686.9399646000238,None,1686.9399646000238,None,1686.9399646000238,None,1686.9399646000238,None,1686.9399646000238,None,1686.9399646000238,None,0.7078957000048831,,,,,,,alefn,001,2021_Sep_28_1933,shapka,2021.1.4,59.98080614949972,
1,8,abs,left,left.png,left.png,non,Яблоки,Пряники,music6.png,animal8.png,tool1.png,tool6.png,-298,-298,298,298,-316,316,-316,316,"[-200, 0]","[200, 0]","[81, 81]","[81, 81]","[81, 81]","[81, 81]",4,car7.png,tool2.png,music5.png,tool9.png,None,None,None,None,-298,-298,298,298,-298,-298,298,298,85,-85,85,-85,200,-200,200,-200,"[81, 81]","[81, 81]","[81, 81]","[81, 81]","[81, 81]","[81, 81]","[81, 81]","[81, 81]",,,,,0,33,33,45,,,,,,,,,,,,,,,,,,,,,,,1687.7126868000487,None,1687.7126868000487,None,1687.7126868000487,None,1687.920483599999,None,1688.32918780006,None,1688.32918780006,None,1688.32918780006,None,1688.7371655000607,None,,,,,,,,,,,,,,,,,,,,,1689.7677297999617,None,a,1689.7677297999617,None,1689.7677297999617,None,1689.7677297999617,None,1689.7677297999617,None,1689.7677297999617,None,1689.7677297999617,None,1689.7677297999617,None,1689.7677297999617,None,1689.7677297999617,None,1689.7677297999617,None,1689.7677297999617,None,1689.7677297999617,None,1689.7677297999617,None,1.1282443000236526,,,,,,,alefn,001,2021_Sep_28_1933,shapka,2021.1.4,59.98080614949972,
2,10,abs,right,right.png,right.png,non,Стулья,Брусья,tool5.png,car5.png,tool7.png,music1.png,298,298,-298,-298,-316,316,-316,316,"[200, 0]","[-200, 0]","[81, 81]","[81, 81]","[81, 81]","[81, 81]",6,car8.png,tool6.png,animal4.png,tool1.png,tool2.png,tool9.png,tool10.png,music3.png,298,298,-298,-298,298,298,-298,-298,85,-85,85,-85,-200,200,-200,200,"[81, 81]","[81, 81]","[81, 81]","[81, 81]","[81, 81]","[81, 81]","[81, 81]","[81, 81]",,,,,0,34,34,74,,,,,,,,,,,,,,,,,,,,,,,1690.9443412000546,None,1690.9443412000546,None,1690.9443412000546,None,1691.1540490000043,None,1691.558723299997,None,1691.558723299997,None,1691.558723299997,None,1691.970660299994,None,,,,,,,,,,,,,,,,,,,,,1693.014186299988,None,a,1693.014186299988,None,1693.014186299988,None,1693.014186299988,None,1693.014186299988,None,1693.014186299988,None,1693.014186299988,None,1693.014186299988,None,1693.014186299988,None,1693.014186299988,None,1693.014186299988,None,1693.014186299988,None,1693.014186299988,None,1693.014186299988,None,1.0658352000173181,,,,,,,alefn,001,2021_Sep_28_1933,shapka,2021.1.4,59.98080614949972,
1,5,pre,left,left.png,left.png,bas,Яблоки,Пряники,fruit5.png,car7.png,tool6.png,animal5.png,-298,-298,298,298,316,-316,316,-316,"[-200, 0]","[200, 0]","[81, 81]","[81, 81]","[81, 81]","[81, 81]",2,None,None,None,None,None,None,None,None,-298,-298,298,298,-298,-298,298,298,85,-85,85,-85,200,-200,200,-200,"[81, 81]","[81, 81]","[81, 81]","[81, 81]","[81, 81]","[81, 81]","[81, 81]","[81, 81]",,,,,0,35,35,198,,,,,,,,,,,,,,,,,,,,,,,1694.1246843000408,None,1694.1246843000408,None,1694.1246843000408,None,1694.3375191000523,None,1694.7431677000131,None,1694.7431677000131,None,1694.7431677000131,None,1695.1541263000108,None,,,,,,,,,,,,,,,,,,,,,1696.170671400032,None,p,1696.170671400032,None,1696.170671400032,None,1696.170671400032,None,1696.170671400032,None,1696.170671400032,None,1696.170671400032,None,1696.170671400032,None,1696.170671400032,None,1696.170671400032,None,1696.170671400032,None,1696.170671400032,None,1696.170671400032,None,1696.170671400032,None,0.5170588999753818,,,,,,,alefn,001,2021_Sep_28_1933,shapka,2021.1.4,59.98080614949972,
2,9,pre,right,right.png,right.png,bas,Рубашки,Барашки,clothes4.png,animal9.png,animal4.png,music2.png,298,298,-298,-298,85,-85,85,-85,"[200, 0]","[-200, 0]","[81, 81]","[81, 81]","[81, 81]","[81, 81]",6,music1.png,car3.png,animal2.png,music5.png,tool6.png,tool10.png,tool7.png,music8.png,298,298,-298,-298,298,298,-298,-298,316,-316,316,-316,200,-200,200,-200,"[81, 81]","[81, 81]","[81, 81]","[81, 81]","[81, 81]","[81, 81]","[81, 81]","[81, 81]",,,,,0,36,36,244,,,,,,,,,,,,,,,,,,,,,,,1696.7514392000157,None,1696.7514392000157,None,1696.7514392000157,None,1696.954204199952,None,1697.3589462999953,None,1697.3589462999953,None,1697.3589462999953,None,1697.7709177000215,None,,,,,,,,,,,,,,,,,,,,,1698.8145178999985,None,p,1698.8145178999985,None,1698.8145178999985,None,1698.8145178999985,None,1698.8145178999985,None,1698.8145178999985,None,1698.8145178999985,None,1698.8145178999985,None,1698.8145178999985,None,1698.8145178999985,None,1698.8145178999985,None,1698.8145178999985,None,1698.8145178999985,None,1698.8145178999985,None,0.5931522999890149,,,,,,,alefn,001,2021_Sep_28_1933,shapka,2021.1.4,59.98080614949972,
2,9,pre,right,right.png,right.png,bas,Рубашки,Барашки,clothes3.png,car9.png,car10.png,tool6.png,298,298,-298,-298,-85,85,-85,85,"[200, 0]","[-200, 0]","[81, 81]","[81, 81]","[81, 81]","[81, 81]",6,car1.png,animal8.png,tool4.png,animal5.png,tool3.png,music1.png,music2.png,music7.png,298,298,-298,-298,298,298,-298,-298,316,-316,316,-316,200,-200,200,-200,"[81, 81]","[81, 81]","[81, 81]","[81, 81]","[81, 81]","[81, 81]","[81, 81]","[81, 81]",,,,,0,37,37,246,,,,,,,,,,,,,,,,,,,,,,,1699.4595828000456,None,1699.4595828000456,None,1699.4595828000456,None,1699.6710793999955,None,1700.072521800059,None,1700.072521800059,None,1700.072521800059,None,1700.487792000058,None,,,,,,,,,,,,,,,,,,,,,1701.517330499948,None,p,1701.517330499948,None,1701.517330499948,None,1701.517330499948,None,1701.517330499948,None,1701.517330499948,None,1701.517330499948,None,1701.517330499948,None,1701.517330499948,None,1701.517330499948,None,1701.517330499948,None,1701.517330499948,None,1701.517330499948,None,1701.517330499948,None,0.6106701999669895,,,,,,,alefn,001,2021_Sep_28_1933,shapka,2021.1.4,59.98080614949972,
2,9,pre,right,right.png,right.png,bas,Чашки,Шашки,tableware2.png,car10.png,car8.png,animal4.png,298,298,-298,-298,-200,200,-200,200,"[200, 0]","[-200, 0]","[81, 81]","[81, 81]","[81, 81]","[81, 81]",6,animal1.png,animal3.png,tool2.png,animal6.png,tool7.png,tool1.png,car9.png,tool5.png,298,298,-298,-298,298,298,-298,-298,-85,85,-85,85,316,-316,316,-316,"[81, 81]","[81, 81]","[81, 81]","[81, 81]","[81, 81]","[81, 81]","[81, 81]","[81, 81]",,,,,0,38,38,306,,,,,,,,,,,,,,,,,,,,,,,1702.1800524999853,None,1702.1800524999853,None,1702.1800524999853,None,1702.387886899989,None,1702.7875959000085,None,1702.7875959000085,None,1702.7875959000085,None,1703.1877847999567,None,,,,,,,,,,,,,,,,,,,,,1704.217483000015,None,p,1704.217483000015,None,1704.217483000015,None,1704.217483000015,None,1704.217483000015,None,1704.217483000015,None,1704.217483000015,None,1704.217483000015,None,1704.217483000015,None,1704.217483000015,None,1704.217483000015,None,1704.217483000015,None,1704.217483000015,None,1704.217483000015,None,1.8384323000209406,,,,,,,alefn,001,2021_Sep_28_1933,shapka,2021.1.4,59.98080614949972,
2,7,pre,right,right.png,right.png,bas,Рубашки,Барашки,clothes4.png,car1.png,animal3.png,animal8.png,298,298,-298,-298,85,-85,85,-85,"[200, 0]","[-200, 0]","[81, 81]","[81, 81]","[81, 81]","[81, 81]",4,tool9.png,music5.png,animal7.png,animal10.png,None,None,None,None,298,298,-298,-298,298,298,-298,-298,316,-316,316,-316,200,-200,200,-200,"[81, 81]","[81, 81]","[81, 81]","[81, 81]","[81, 81]","[81, 81]","[81, 81]","[81, 81]",,,,,0,39,39,242,,,,,,,,,,,,,,,,,,,,,,,1706.0967259999597,None,1706.0967259999597,None,1706.0967259999597,None,1706.3047380000353,None,1706.7094210999785,None,1706.7094210999785,None,1706.7094210999785,None,1707.12132200005,None,,,,,,,,,,,,,,,,,,,,,1708.145163899986,None,p,1708.145163899986,None,1708.145163899986,None,1708.145163899986,None,1708.145163899986,None,1708.145163899986,None,1708.145163899986,None,1708.145163899986,None,1708.145163899986,None,1708.145163899986,None,1708.145163899986,None,1708.145163899986,None,1708.145163899986,None,1708.145163899986,None,0.6867198999971151,,,,,,,alefn,001,2021_Sep_28_1933,shapka,2021.1.4,59.98080614949972,
1,10,abs,left,left.png,left.png,non,Чашки,Шашки,music9.png,car1.png,car8.png,car5.png,-298,-298,298,298,316,-316,316,-316,"[-200, 0]","[200, 0]","[81, 81]","[81, 81]","[81, 81]","[81, 81]",6,car6.png,music2.png,music10.png,music4.png,animal1.png,music3.png,car9.png,animal7.png,-298,-298,298,298,-298,-298,298,298,-85,85,-85,85,-200,200,-200,200,"[81, 81]","[81, 81]","[81, 81]","[81, 81]","[81, 81]","[81, 81]","[81, 81]","[81, 81]",,,,,0,40,40,36,,,,,,,,,,,,,,,,,,,,,,,1708.876028800034,None,1708.876028800034,None,1708.876028800034,None,1709.0881921000546,None,1709.4931560000405,None,1709.4931560000405,None,1709.4931560000405,None,1709.904752900009,None,,,,,,,,,,,,,,,,,,,,,1710.940556799993,None,a,1710.940556799993,None,1710.940556799993,None,1710.940556799993,None,1710.940556799993,None,1710.940556799993,None,1710.940556799993,None,1710.940556799993,None,1710.940556799993,None,1710.940556799993,None,1710.940556799993,None,1710.940556799993,None,1710.940556799993,None,1710.940556799993,None,1.1473965999903157,,,,,,,alefn,001,2021_Sep_28_1933,shapka,2021.1.4,59.98080614949972,
1,9,pre,left,left.png,left.png,bas,Чашки,Шашки,tableware5.png,tool7.png,animal7.png,tool4.png,-298,-298,298,298,-200,200,-200,200,"[-200, 0]","[200, 0]","[81, 81]","[81, 81]","[81, 81]","[81, 81]",6,car10.png,tool2.png,music3.png,music5.png,animal6.png,music8.png,animal9.png,animal1.png,-298,-298,298,298,-298,-298,298,298,-85,85,-85,85,316,-316,316,-316,"[81, 81]","[81, 81]","[81, 81]","[81, 81]","[81, 81]","[81, 81]","[81, 81]","[81, 81]",,,,,0,41,41,191,,,,,,,,,,,,,,,,,,,,,,,1712.1261674000416,None,1712.1261674000416,None,1712.1261674000416,None,1712.3381951999618,None,1712.7400127999717,None,1712.7400127999717,None,1712.7400127999717,None,1713.1549242000328,None,,,,,,,,,,,,,,,,,,,,,1714.1927056000568,None,p,1714.1927056000568,None,1714.1927056000568,None,1714.1927056000568,None,1714.1927056000568,None,1714.1927056000568,None,1714.1927056000568,None,1714.1927056000568,None,1714.1927056000568,None,1714.1927056000568,None,1714.1927056000568,None,1714.1927056000568,None,1714.1927056000568,None,1714.1927056000568,None,0.9670386000070721,,,,,,,alefn,001,2021_Sep_28_1933,shapka,2021.1.4,59.98080614949972,
1,10,abs,left,left.png,left.png,non,Стулья,Брусья,tool7.png,tool3.png,tool8.png,music1.png,-298,-298,298,298,-316,316,-316,316,"[-200, 0]","[200, 0]","[81, 81]","[81, 81]","[81, 81]","[81, 81]",6,music6.png,animal5.png,tool1.png,car9.png,animal7.png,animal10.png,animal4.png,tool2.png,-298,-298,298,298,-298,-298,298,298,85,-85,85,-85,-200,200,-200,200,"[81, 81]","[81, 81]","[81, 81]","[81, 81]","[81, 81]","[81, 81]","[81, 81]","[81, 81]",,,,,0,42,42,22,,,,,,,,,,,,,,,,,,,,,,,1715.20927630004,None,1715.20927630004,None,1715.20927630004,None,1715.4217930999584,None,1715.8263498999877,None,1715.8263498999877,None,1715.8263498999877,None,1716.2383888000622,None,,,,,,,,,,,,,,,,,,,,,1717.2744202000322,None,p,1717.2744202000322,None,1717.2744202000322,None,1717.2744202000322,None,1717.2744202000322,None,1717.2744202000322,None,1717.2744202000322,None,1717.2744202000322,None,1717.2744202000322,None,1717.2744202000322,None,1717.2744202000322,None,1717.2744202000322,None,1717.2744202000322,None,1717.2744202000322,None,1.637555200024508,,,,,,,alefn,001,2021_Sep_28_1933,shapka,2021.1.4,59.98080614949972,
1,5,pre,left,left.png,left.png,bas,Чашки,Шашки,tableware4.png,music2.png,car7.png,animal1.png,-298,-298,298,298,-316,316,-316,316,"[-200, 0]","[200, 0]","[81, 81]","[81, 81]","[81, 81]","[81, 81]",2,None,None,None,None,None,None,None,None,-298,-298,298,298,-298,-298,298,298,-85,85,-85,85,-200,200,-200,200,"[81, 81]","[81, 81]","[81, 81]","[81, 81]","[81, 81]","[81, 81]","[81, 81]","[81, 81]",,,,,0,43,43,168,,,,,,,,,,,,,,,,,,,,,,,1718.9591747999657,None,1718.9591747999657,None,1718.9591747999657,None,1719.1719175999751,None,1719.587439200026,None,1719.587439200026,None,1719.587439200026,None,1719.9885315999854,None,,,,,,,,,,,,,,,,,,,,,1721.0021725000115,None,p,1721.0021725000115,None,1721.0021725000115,None,1721.0021725000115,None,1721.0021725000115,None,1721.0021725000115,None,1721.0021725000115,None,1721.0021725000115,None,1721.0021725000115,None,1721.0021725000115,None,1721.0021725000115,None,1721.0021725000115,None,1721.0021725000115,None,1721.0021725000115,None,0.7337141999742016,,,,,,,alefn,001,2021_Sep_28_1933,shapka,2021.1.4,59.98080614949972,
1,7,pre,left,left.png,left.png,bas,Яблоки,Пряники,fruit4.png,tool6.png,tool5.png,animal2.png,-298,-298,298,298,-85,85,-85,85,"[-200, 0]","[200, 0]","[81, 81]","[81, 81]","[81, 81]","[81, 81]",4,car8.png,animal7.png,car1.png,tool4.png,None,None,None,None,-298,-298,298,298,-298,-298,298,298,-316,316,-316,316,200,-200,200,-200,"[81, 81]","[81, 81]","[81, 81]","[81, 81]","[81, 81]","[81, 81]","[81, 81]","[81, 81]",,,,,0,44,44,203,,,,,,,,,,,,,,,,,,,,,,,1721.7936402000487,None,1721.7936402000487,None,1721.7936402000487,None,1722.0053310999647,None,1722.4138318999903,None,1722.4138318999903,None,1722.4138318999903,None,1722.822007699986,None,,,,,,,,,,,,,,,,,,,,,1723.8415745999664,None,p,1723.8415745999664,None,1723.8415745999664,None,1723.8415745999664,None,1723.8415745999664,None,1723.8415745999664,None,1723.8415745999664,None,1723.8415745999664,None,1723.8415745999664,None,1723.8415745999664,None,1723.8415745999664,None,1723.8415745999664,None,1723.8415745999664,None,1723.8415745999664,None,0.8863931000232697,,,,,,,alefn,001,2021_Sep_28_1933,shapka,2021.1.4,59.98080614949972,
2,10,abs,right,right.png,right.png,non,Чашки,Шашки,animal5.png,car4.png,car5.png,tool1.png,298,298,-298,-298,316,-316,316,-316,"[200, 0]","[-200, 0]","[81, 81]","[81, 81]","[81, 81]","[81, 81]",6,music7.png,tool10.png,car2.png,music8.png,animal6.png,music3.png,tool9.png,animal9.png,298,298,-298,-298,298,298,-298,-298,85,-85,85,-85,-200,200,-200,200,"[81, 81]","[81, 81]","[81, 81]","[81, 81]","[81, 81]","[81, 81]","[81, 81]","[81, 81]",,,,,0,45,45,84,,,,,,,,,,,,,,,,,,,,,,,1724.779243499972,None,1724.779243499972,None,1724.779243499972,None,1724.9888911000453,None,1725.3935862999642,None,1725.3935862999642,None,1725.3935862999642,None,1725.8054763999535,None,,,,,,,,,,,,,,,,,,,,,1726.8428599999752,None,a,1726.8428599999752,None,1726.8428599999752,None,1726.8428599999752,None,1726.8428599999752,None,1726.8428599999752,None,1726.8428599999752,None,1726.8428599999752,None,1726.8428599999752,None,1726.8428599999752,None,1726.8428599999752,None,1726.8428599999752,None,1726.8428599999752,None,1726.8428599999752,None,1.396928200032562,,,,,,,alefn,001,2021_Sep_28_1933,shapka,2021.1.4,59.98080614949972,
1,9,pre,left,left.png,left.png,bas,Яблоки,Пряники,fruit1.png,music7.png,car6.png,car3.png,-298,-298,298,298,200,-200,200,-200,"[-200, 0]","[200, 0]","[81, 81]","[81, 81]","[81, 81]","[81, 81]",6,car9.png,tool4.png,music8.png,car1.png,animal1.png,car2.png,tool10.png,animal5.png,-298,-298,298,298,-298,-298,298,298,85,-85,85,-85,-316,316,-316,316,"[81, 81]","[81, 81]","[81, 81]","[81, 81]","[81, 81]","[81, 81]","[81, 81]","[81, 81]",,,,,0,46,46,221,,,,,,,,,,,,,,,,,,,,,,,1728.2760992000112,None,1728.2760992000112,None,1728.2760992000112,None,1728.489056600025,None,1728.8948743999936,None,1728.8948743999936,None,1728.8948743999936,None,1729.3057263999945,None,,,,,,,,,,,,,,,,,,,,,1730.3430766999954,None,p,1730.3430766999954,None,1730.3430766999954,None,1730.3430766999954,None,1730.3430766999954,None,1730.3430766999954,None,1730.3430766999954,None,1730.3430766999954,None,1730.3430766999954,None,1730.3430766999954,None,1730.3430766999954,None,1730.3430766999954,None,1730.3430766999954,None,1730.3430766999954,None,1.2249414999969304,,,,,,,alefn,001,2021_Sep_28_1933,shapka,2021.1.4,59.98080614949972,
1,9,pre,left,left.png,left.png,bas,Стулья,Брусья,furniture5.png,tool9.png,animal8.png,car7.png,-298,-298,298,298,85,-85,85,-85,"[-200, 0]","[200, 0]","[81, 81]","[81, 81]","[81, 81]","[81, 81]",6,music1.png,music2.png,music5.png,music3.png,music4.png,animal1.png,tool6.png,music10.png,-298,-298,298,298,-298,-298,298,298,-316,316,-316,316,-200,200,-200,200,"[81, 81]","[81, 81]","[81, 81]","[81, 81]","[81, 81]","[81, 81]","[81, 81]","[81, 81]",,,,,0,47,47,153,,,,,,,,,,,,,,,,,,,,,,,1731.609581500059,None,1731.609581500059,None,1731.609581500059,None,1731.8225267999806,None,1732.2270355999935,None,1732.2270355999935,None,1732.2270355999935,None,1732.6392351000104,None,,,,,,,,,,,,,,,,,,,,,1733.673777100048,None,p,1733.673777100048,None,1733.673777100048,None,1733.673777100048,None,1733.673777100048,None,1733.673777100048,None,1733.673777100048,None,1733.673777100048,None,1733.673777100048,None,1733.673777100048,None,1733.673777100048,None,1733.673777100048,None,1733.673777100048,None,1733.673777100048,None,1.118078300030902,,,,,,,alefn,001,2021_Sep_28_1933,shapka,2021.1.4,59.98080614949972,
2,7,pre,right,right.png,right.png,bas,Стулья,Брусья,furniture4.png,animal6.png,animal2.png,animal1.png,298,298,-298,-298,85,-85,85,-85,"[200, 0]","[-200, 0]","[81, 81]","[81, 81]","[81, 81]","[81, 81]",4,music8.png,tool1.png,tool9.png,music4.png,None,None,None,None,298,298,-298,-298,298,298,-298,-298,316,-316,316,-316,200,-200,200,-200,"[81, 81]","[81, 81]","[81, 81]","[81, 81]","[81, 81]","[81, 81]","[81, 81]","[81, 81]",,,,,0,48,48,263,,,,,,,,,,,,,,,,,,,,,,,1734.8449993999675,None,1734.8449993999675,None,1734.8449993999675,None,1735.0559865999967,None,1735.4567672000267,None,1735.4567672000267,None,1735.4567672000267,None,1735.855954400031,None,,,,,,,,,,,,,,,,,,,,,1736.8796618999913,None,p,1736.8796618999913,None,1736.8796618999913,None,1736.8796618999913,None,1736.8796618999913,None,1736.8796618999913,None,1736.8796618999913,None,1736.8796618999913,None,1736.8796618999913,None,1736.8796618999913,None,1736.8796618999913,None,1736.8796618999913,None,1736.8796618999913,None,1736.8796618999913,None,1.3442516000941396,,,,,,,alefn,001,2021_Sep_28_1933,shapka,2021.1.4,59.98080614949972,
2,9,pre,right,right.png,right.png,bas,Чашки,Шашки,tableware4.png,car4.png,animal9.png,tool2.png,298,298,-298,-298,-200,200,-200,200,"[200, 0]","[-200, 0]","[81, 81]","[81, 81]","[81, 81]","[81, 81]",6,tool5.png,car10.png,music7.png,tool3.png,music8.png,music1.png,tool1.png,tool6.png,298,298,-298,-298,298,298,-298,-298,85,-85,85,-85,316,-316,316,-316,"[81, 81]","[81, 81]","[81, 81]","[81, 81]","[81, 81]","[81, 81]","[81, 81]","[81, 81]",,,,,0,49,49,304,,,,,,,,,,,,,,,,,,,,,,,1738.2655566000612,None,1738.2655566000612,None,1738.2655566000612,None,1738.4728164999979,None,1738.8775038999738,None,1738.8775038999738,None,1738.8775038999738,None,1739.2894296000013,None,,,,,,,,,,,,,,,,,,,,,1740.3261131000472,None,p,1740.3261131000472,None,1740.3261131000472,None,1740.3261131000472,None,1740.3261131000472,None,1740.3261131000472,None,1740.3261131000472,None,1740.3261131000472,None,1740.3261131000472,None,1740.3261131000472,None,1740.3261131000472,None,1740.3261131000472,None,1740.3261131000472,None,1740.3261131000472,None,0.6418366000289097,,,,,,,alefn,001,2021_Sep_28_1933,shapka,2021.1.4,59.98080614949972,
2,5,pre,right,right.png,right.png,bas,Рубашки,Барашки,clothes3.png,car7.png,tool3.png,tool1.png,298,298,-298,-298,-316,316,-316,316,"[200, 0]","[-200, 0]","[81, 81]","[81, 81]","[81, 81]","[81, 81]",2,None,None,None,None,None,None,None,None,298,298,-298,-298,298,298,-298,-298,-85,85,-85,85,-200,200,-200,200,"[81, 81]","[81, 81]","[81, 81]","[81, 81]","[81, 81]","[81, 81]","[81, 81]","[81, 81]",,,,,0,50,50,227,,,,,,,,,,,,,,,,,,,,,,,1741.0168588999659,None,1741.0168588999659,None,1741.0168588999659,None,1741.2228890999686,None,1741.627594199963,None,1741.627594199963,None,1741.627594199963,None,1742.0395366000012,None,,,,,,,,,,,,,,,,,,,,,1743.0594790000468,None,p,1743.0594790000468,None,1743.0594790000468,None,1743.0594790000468,None,1743.0594790000468,None,1743.0594790000468,None,1743.0594790000468,None,1743.0594790000468,None,1743.0594790000468,None,1743.0594790000468,None,1743.0594790000468,None,1743.0594790000468,None,1743.0594790000468,None,1743.0594790000468,None,0.7001874999841675,,,,,,,alefn,001,2021_Sep_28_1933,shapka,2021.1.4,59.98080614949972,
2,10,abs,right,right.png,right.png,non,Рубашки,Барашки,car1.png,tool8.png,tool9.png,music2.png,298,298,-298,-298,-316,316,-316,316,"[200, 0]","[-200, 0]","[81, 81]","[81, 81]","[81, 81]","[81, 81]",6,animal6.png,tool4.png,animal5.png,tool7.png,car10.png,animal1.png,music1.png,car3.png,298,298,-298,-298,298,298,-298,-298,85,-85,85,-85,-200,200,-200,200,"[81, 81]","[81, 81]","[81, 81]","[81, 81]","[81, 81]","[81, 81]","[81, 81]","[81, 81]",,,,,0,51,51,61,,,,,,,,,,,,,,,,,,,,,,,1743.822584599955,None,1743.822584599955,None,1743.822584599955,None,1744.0230369999772,None,1744.4242484000279,None,1744.4242484000279,None,1744.4242484000279,None,1744.839707899955,None,,,,,,,,,,,,,,,,,,,,,1745.9007511000382,None,a,1745.9007511000382,None,1745.9007511000382,None,1745.9007511000382,None,1745.9007511000382,None,1745.9007511000382,None,1745.9007511000382,None,1745.9007511000382,None,1745.9007511000382,None,1745.9007511000382,None,1745.9007511000382,None,1745.9007511000382,None,1745.9007511000382,None,1745.9007511000382,None,3.835211200057529,,,,,,,alefn,001,2021_Sep_28_1933,shapka,2021.1.4,59.98080614949972,
1,9,pre,left,left.png,left.png,bas,Рубашки,Барашки,clothes4.png,car3.png,music2.png,car1.png,-298,-298,298,298,85,-85,85,-85,"[-200, 0]","[200, 0]","[81, 81]","[81, 81]","[81, 81]","[81, 81]",6,car6.png,car9.png,music7.png,animal10.png,car5.png,animal8.png,animal4.png,animal1.png,-298,-298,298,298,-298,-298,298,298,316,-316,316,-316,200,-200,200,-200,"[81, 81]","[81, 81]","[81, 81]","[81, 81]","[81, 81]","[81, 81]","[81, 81]","[81, 81]",,,,,0,52,52,124,,,,,,,,,,,,,,,,,,,,,,,1749.7772966000484,None,1749.7772966000484,None,1749.7772966000484,None,1749.9899877000134,None,1750.3913587999996,None,1750.3913587999996,None,1750.3913587999996,None,1750.8066721999785,None,,,,,,,,,,,,,,,,,,,,,1751.8371558999643,None,p,1751.8371558999643,None,1751.8371558999643,None,1751.8371558999643,None,1751.8371558999643,None,1751.8371558999643,None,1751.8371558999643,None,1751.8371558999643,None,1751.8371558999643,None,1751.8371558999643,None,1751.8371558999643,None,1751.8371558999643,None,1751.8371558999643,None,1751.8371558999643,None,0.7307286999421194,,,,,,,alefn,001,2021_Sep_28_1933,shapka,2021.1.4,59.98080614949972,
1,7,pre,left,left.png,left.png,bas,Яблоки,Пряники,fruit4.png,animal2.png,car5.png,car8.png,-298,-298,298,298,85,-85,85,-85,"[-200, 0]","[200, 0]","[81, 81]","[81, 81]","[81, 81]","[81, 81]",4,tool6.png,animal1.png,car3.png,music7.png,None,None,None,None,-298,-298,298,298,-298,-298,298,298,316,-316,316,-316,200,-200,200,-200,"[81, 81]","[81, 81]","[81, 81]","[81, 81]","[81, 81]","[81, 81]","[81, 81]","[81, 81]",,,,,0,53,53,208,,,,,,,,,,,,,,,,,,,,,,,1752.6106925000204,None,1752.6106925000204,None,1752.6106925000204,None,1752.82336020004,None,1753.2318219000008,None,1753.2318219000008,None,1753.2318219000008,None,1753.6400982000632,None,,,,,,,,,,,,,,,,,,,,,1754.6773616999853,None,p,1754.6773616999853,None,1754.6773616999853,None,1754.6773616999853,None,1754.6773616999853,None,1754.6773616999853,None,1754.6773616999853,None,1754.6773616999853,None,1754.6773616999853,None,1754.6773616999853,None,1754.6773616999853,None,1754.6773616999853,None,1754.6773616999853,None,1754.6773616999853,None,0.5224756000097841,,,,,,,alefn,001,2021_Sep_28_1933,shapka,2021.1.4,59.98080614949972,
2,8,abs,right,right.png,right.png,non,Яблоки,Пряники,music5.png,music1.png,music7.png,music3.png,298,298,-298,-298,-316,316,-316,316,"[200, 0]","[-200, 0]","[81, 81]","[81, 81]","[81, 81]","[81, 81]",4,music5.png,tool9.png,tool1.png,car10.png,None,None,None,None,298,298,-298,-298,298,298,-298,-298,85,-85,85,-85,200,-200,200,-200,"[81, 81]","[81, 81]","[81, 81]","[81, 81]","[81, 81]","[81, 81]","[81, 81]","[81, 81]",,,,,0,54,54,94,,,,,,,,,,,,,,,,,,,,,,,1755.2466116000433,None,1755.2466116000433,None,1755.2466116000433,None,1755.456920400029,None,1755.8586598000256,None,1755.8586598000256,None,1755.8586598000256,None,1756.2736128000543,None,,,,,,,,,,,,,,,,,,,,,1757.300979700056,None,a,1757.300979700056,None,1757.300979700056,None,1757.300979700056,None,1757.300979700056,None,1757.300979700056,None,1757.300979700056,None,1757.300979700056,None,1757.300979700056,None,1757.300979700056,None,1757.300979700056,None,1757.300979700056,None,1757.300979700056,None,1757.300979700056,None,1.5468605000060052,,,,,,,alefn,001,2021_Sep_28_1933,shapka,2021.1.4,59.98080614949972,
1,6,abs,left,left.png,left.png,non,Яблоки,Пряники,tool8.png,animal9.png,animal3.png,animal1.png,-298,-298,298,298,316,-316,316,-316,"[-200, 0]","[200, 0]","[81, 81]","[81, 81]","[81, 81]","[81, 81]",2,None,None,None,None,None,None,None,None,-298,-298,298,298,-298,-298,298,298,-85,85,-85,85,-200,200,-200,200,"[81, 81]","[81, 81]","[81, 81]","[81, 81]","[81, 81]","[81, 81]","[81, 81]","[81, 81]",,,,,0,55,55,42,,,,,,,,,,,,,,,,,,,,,,,1758.906206500018,None,1758.906206500018,None,1758.906206500018,None,1759.1070406000363,None,1759.5077627999708,None,1759.5077627999708,None,1759.5077627999708,None,1759.9070621000137,None,,,,,,,,,,,,,,,,,,,,,1760.920576900011,None,a,1760.920576900011,None,1760.920576900011,None,1760.920576900011,None,1760.920576900011,None,1760.920576900011,None,1760.920576900011,None,1760.920576900011,None,1760.920576900011,None,1760.920576900011,None,1760.920576900011,None,1760.920576900011,None,1760.920576900011,None,1760.920576900011,None,0.7112236999673769,,,,,,,alefn,001,2021_Sep_28_1933,shapka,2021.1.4,59.98080614949972,
1,8,abs,left,left.png,left.png,non,Чашки,Шашки,animal1.png,music4.png,tool9.png,animal2.png,-298,-298,298,298,-316,316,-316,316,"[-200, 0]","[200, 0]","[81, 81]","[81, 81]","[81, 81]","[81, 81]",4,car1.png,car3.png,car8.png,car6.png,None,None,None,None,-298,-298,298,298,-298,-298,298,298,85,-85,85,-85,200,-200,200,-200,"[81, 81]","[81, 81]","[81, 81]","[81, 81]","[81, 81]","[81, 81]","[81, 81]","[81, 81]",,,,,0,56,56,34,,,,,,,,,,,,,,,,,,,,,,,1761.696082700044,None,1761.696082700044,None,1761.696082700044,None,1761.9071372000035,None,1762.3120955000632,None,1762.3120955000632,None,1762.3120955000632,None,1762.7238701999886,None,,,,,,,,,,,,,,,,,,,,,1763.7518454999663,None,a,1763.7518454999663,None,1763.7518454999663,None,1763.7518454999663,None,1763.7518454999663,None,1763.7518454999663,None,1763.7518454999663,None,1763.7518454999663,None,1763.7518454999663,None,1763.7518454999663,None,1763.7518454999663,None,1763.7518454999663,None,1763.7518454999663,None,1763.7518454999663,None,1.0717921999748796,,,,,,,alefn,001,2021_Sep_28_1933,shapka,2021.1.4,59.98080614949972,
1,7,pre,left,left.png,left.png,bas,Яблоки,Пряники,fruit1.png,music6.png,tool4.png,car5.png,-298,-298,298,298,85,-85,85,-85,"[-200, 0]","[200, 0]","[81, 81]","[81, 81]","[81, 81]","[81, 81]",4,music8.png,tool2.png,car3.png,tool1.png,None,None,None,None,-298,-298,298,298,-298,-298,298,298,-316,316,-316,316,200,-200,200,-200,"[81, 81]","[81, 81]","[81, 81]","[81, 81]","[81, 81]","[81, 81]","[81, 81]","[81, 81]",,,,,0,57,57,210,,,,,,,,,,,,,,,,,,,,,,,1764.8626150999917,None,1764.8626150999917,None,1764.8626150999917,None,1765.0739517000038,None,1765.4796666000038,None,1765.4796666000038,None,1765.4796666000038,None,1765.890579400002,None,,,,,,,,,,,,,,,,,,,,,1766.9165847999975,None,p,1766.9165847999975,None,1766.9165847999975,None,1766.9165847999975,None,1766.9165847999975,None,1766.9165847999975,None,1766.9165847999975,None,1766.9165847999975,None,1766.9165847999975,None,1766.9165847999975,None,1766.9165847999975,None,1766.9165847999975,None,1766.9165847999975,None,1766.9165847999975,None,0.5792527000885457,,,,,,,alefn,001,2021_Sep_28_1933,shapka,2021.1.4,59.98080614949972,
2,9,pre,right,right.png,right.png,bas,Чашки,Шашки,tableware5.png,music4.png,car8.png,music7.png,298,298,-298,-298,-200,200,-200,200,"[200, 0]","[-200, 0]","[81, 81]","[81, 81]","[81, 81]","[81, 81]",6,animal3.png,music10.png,tool2.png,tool1.png,car9.png,music5.png,music1.png,music6.png,298,298,-298,-298,298,298,-298,-298,85,-85,85,-85,316,-316,316,-316,"[81, 81]","[81, 81]","[81, 81]","[81, 81]","[81, 81]","[81, 81]","[81, 81]","[81, 81]",,,,,0,58,58,305,,,,,,,,,,,,,,,,,,,,,,,1767.5474573000101,None,1767.5474573000101,None,1767.5474573000101,None,1767.7573897000402,None,1768.1622781000333,None,1768.1622781000333,None,1768.1622781000333,None,1768.5739927999675,None,,,,,,,,,,,,,,,,,,,,,1769.6217185000423,None,p,1769.6217185000423,None,1769.6217185000423,None,1769.6217185000423,None,1769.6217185000423,None,1769.6217185000423,None,1769.6217185000423,None,1769.6217185000423,None,1769.6217185000423,None,1769.6217185000423,None,1769.6217185000423,None,1769.6217185000423,None,1769.6217185000423,None,1769.6217185000423,None,0.7781931000063196,,,,,,,alefn,001,2021_Sep_28_1933,shapka,2021.1.4,59.98080614949972,
1,9,pre,left,left.png,left.png,bas,Чашки,Шашки,tableware3.png,animal1.png,car7.png,tool6.png,-298,-298,298,298,-85,85,-85,85,"[-200, 0]","[200, 0]","[81, 81]","[81, 81]","[81, 81]","[81, 81]",6,car2.png,tool3.png,animal8.png,music10.png,animal5.png,car9.png,car4.png,car1.png,-298,-298,298,298,-298,-298,298,298,316,-316,316,-316,-200,200,-200,200,"[81, 81]","[81, 81]","[81, 81]","[81, 81]","[81, 81]","[81, 81]","[81, 81]","[81, 81]",,,,,0,59,59,183,,,,,,,,,,,,,,,,,,,,,,,1770.4456820000196,None,1770.4456820000196,None,1770.4456820000196,None,1770.6575824000174,None,1771.059028699994,None,1771.059028699994,None,1771.059028699994,None,1771.474259300041,None,,,,,,,,,,,,,,,,,,,,,1772.5007490999997,None,p,1772.5007490999997,None,1772.5007490999997,None,1772.5007490999997,None,1772.5007490999997,None,1772.5007490999997,None,1772.5007490999997,None,1772.5007490999997,None,1772.5007490999997,None,1772.5007490999997,None,1772.5007490999997,None,1772.5007490999997,None,1772.5007490999997,None,1772.5007490999997,None,0.5871606000000611,,,,,,,alefn,001,2021_Sep_28_1933,shapka,2021.1.4,59.98080614949972,
1,9,pre,left,left.png,left.png,bas,Яблоки,Пряники,fruit3.png,music1.png,tool7.png,animal3.png,-298,-298,298,298,200,-200,200,-200,"[-200, 0]","[200, 0]","[81, 81]","[81, 81]","[81, 81]","[81, 81]",6,animal1.png,car10.png,music4.png,tool9.png,tool6.png,music8.png,car2.png,tool5.png,-298,-298,298,298,-298,-298,298,298,85,-85,85,-85,-316,316,-316,316,"[81, 81]","[81, 81]","[81, 81]","[81, 81]","[81, 81]","[81, 81]","[81, 81]","[81, 81]",,,,,0,60,60,218,,,,,,,,,,,,,,,,,,,,,,,1773.1283299999777,None,1773.1283299999777,None,1773.1283299999777,None,1773.3410141000059,None,1773.7464634999633,None,1773.7464634999633,None,1773.7464634999633,None,1774.1576934000477,None,,,,,,,,,,,,,,,,,,,,,1775.1907753000269,None,p,1775.1907753000269,None,1775.1907753000269,None,1775.1907753000269,None,1775.1907753000269,None,1775.1907753000269,None,1775.1907753000269,None,1775.1907753000269,None,1775.1907753000269,None,1775.1907753000269,None,1775.1907753000269,None,1775.1907753000269,None,1775.1907753000269,None,1775.1907753000269,None,0.5048177000135183,,,,,,,alefn,001,2021_Sep_28_1933,shapka,2021.1.4,59.98080614949972,
2,6,abs,right,right.png,right.png,non,Рубашки,Барашки,tool9.png,car4.png,car5.png,car1.png,298,298,-298,-298,-316,316,-316,316,"[200, 0]","[-200, 0]","[81, 81]","[81, 81]","[81, 81]","[81, 81]",2,None,None,None,None,None,None,None,None,298,298,-298,-298,298,298,-298,-298,-85,85,-85,85,-200,200,-200,200,"[81, 81]","[81, 81]","[81, 81]","[81, 81]","[81, 81]","[81, 81]","[81, 81]","[81, 81]",,,,,0,61,61,54,,,,,,,,,,,,,,,,,,,,,,,1775.7496650000103,None,1775.7496650000103,None,1775.7496650000103,None,1775.957813099958,None,1776.3623587000184,None,1776.3623587000184,None,1776.3623587000184,None,1776.7743539999938,None,,,,,,,,,,,,,,,,,,,,,1777.8030991000123,None,a,1777.8030991000123,None,1777.8030991000123,None,1777.8030991000123,None,1777.8030991000123,None,1777.8030991000123,None,1777.8030991000123,None,1777.8030991000123,None,1777.8030991000123,None,1777.8030991000123,None,1777.8030991000123,None,1777.8030991000123,None,1777.8030991000123,None,1777.8030991000123,None,0.9647277999902144,,,,,,,alefn,001,2021_Sep_28_1933,shapka,2021.1.4,59.98080614949972,
2,7,pre,right,right.png,right.png,bas,Стулья,Брусья,furniture5.png,tool4.png,music10.png,animal7.png,298,298,-298,-298,85,-85,85,-85,"[200, 0]","[-200, 0]","[81, 81]","[81, 81]","[81, 81]","[81, 81]",4,tool8.png,music5.png,music1.png,tool3.png,None,None,None,None,298,298,-298,-298,298,298,-298,-298,-316,316,-316,316,200,-200,200,-200,"[81, 81]","[81, 81]","[81, 81]","[81, 81]","[81, 81]","[81, 81]","[81, 81]","[81, 81]",,,,,0,62,62,270,,,,,,,,,,,,,,,,,,,,,,,1778.8323645000346,None,1778.8323645000346,None,1778.8323645000346,None,1779.0412739999592,None,1779.4457149000373,None,1779.4457149000373,None,1779.4457149000373,None,1779.8579339999706,None,,,,,,,,,,,,,,,,,,,,,1780.8821322000585,None,p,1780.8821322000585,None,1780.8821322000585,None,1780.8821322000585,None,1780.8821322000585,None,1780.8821322000585,None,1780.8821322000585,None,1780.8821322000585,None,1780.8821322000585,None,1780.8821322000585,None,1780.8821322000585,None,1780.8821322000585,None,1780.8821322000585,None,1780.8821322000585,None,0.6294526000274345,,,,,,,alefn,001,2021_Sep_28_1933,shapka,2021.1.4,59.98080614949972,
2,9,pre,right,right.png,right.png,bas,Чашки,Шашки,tableware1.png,car6.png,music3.png,car8.png,298,298,-298,-298,-200,200,-200,200,"[200, 0]","[-200, 0]","[81, 81]","[81, 81]","[81, 81]","[81, 81]",6,animal1.png,animal4.png,music5.png,music2.png,music1.png,tool7.png,car9.png,animal10.png,298,298,-298,-298,298,298,-298,-298,85,-85,85,-85,-316,316,-316,316,"[81, 81]","[81, 81]","[81, 81]","[81, 81]","[81, 81]","[81, 81]","[81, 81]","[81, 81]",,,,,0,63,63,312,,,,,,,,,,,,,,,,,,,,,,,1781.565132800024,None,1781.565132800024,None,1781.565132800024,None,1781.7745926999487,None,1782.180858299951,None,1782.180858299951,None,1782.180858299951,None,1782.591316999984,None,,,,,,,,,,,,,,,,,,,,,1783.6291027000407,None,p,1783.6291027000407,None,1783.6291027000407,None,1783.6291027000407,None,1783.6291027000407,None,1783.6291027000407,None,1783.6291027000407,None,1783.6291027000407,None,1783.6291027000407,None,1783.6291027000407,None,1783.6291027000407,None,1783.6291027000407,None,1783.6291027000407,None,1783.6291027000407,None,1.2108382999431342,,,,,,,alefn,001,2021_Sep_28_1933,shapka,2021.1.4,59.98080614949972,
1,6,abs,left,left.png,left.png,non,Стулья,Брусья,tool1.png,animal2.png,car3.png,music8.png,-298,-298,298,298,-316,316,-316,316,"[-200, 0]","[200, 0]","[81, 81]","[81, 81]","[81, 81]","[81, 81]",2,None,None,None,None,None,None,None,None,-298,-298,298,298,-298,-298,298,298,-85,85,-85,85,-200,200,-200,200,"[81, 81]","[81, 81]","[81, 81]","[81, 81]","[81, 81]","[81, 81]","[81, 81]","[81, 81]",,,,,0,64,64,14,,,,,,,,,,,,,,,,,,,,,,,1784.8786623000633,None,1784.8786623000633,None,1784.8786623000633,None,1785.0914960999507,None,1785.4962866000133,None,1785.4962866000133,None,1785.4962866000133,None,1785.9081476000138,None,,,,,,,,,,,,,,,,,,,,,1786.924537200015,None,a,1786.924537200015,None,1786.924537200015,None,1786.924537200015,None,1786.924537200015,None,1786.924537200015,None,1786.924537200015,None,1786.924537200015,None,1786.924537200015,None,1786.924537200015,None,1786.924537200015,None,1786.924537200015,None,1786.924537200015,None,1786.924537200015,None,1.2270902999443933,,,,,,,alefn,001,2021_Sep_28_1933,shapka,2021.1.4,59.98080614949972,
2,8,abs,right,right.png,right.png,non,Яблоки,Пряники,car2.png,car5.png,tool8.png,tool1.png,298,298,-298,-298,-316,316,-316,316,"[200, 0]","[-200, 0]","[81, 81]","[81, 81]","[81, 81]","[81, 81]",4,tool10.png,music9.png,music2.png,tool7.png,None,None,None,None,298,298,-298,-298,298,298,-298,-298,85,-85,85,-85,200,-200,200,-200,"[81, 81]","[81, 81]","[81, 81]","[81, 81]","[81, 81]","[81, 81]","[81, 81]","[81, 81]",,,,,0,65,65,93,,,,,,,,,,,,,,,,,,,,,,,1788.2160543999635,None,1788.2160543999635,None,1788.2160543999635,None,1788.425001100055,None,1788.8302276000613,None,1788.8302276000613,None,1788.8302276000613,None,1789.241614999948,None,,,,,,,,,,,,,,,,,,,,,1790.2689865999855,None,a,1790.2689865999855,None,1790.2689865999855,None,1790.2689865999855,None,1790.2689865999855,None,1790.2689865999855,None,1790.2689865999855,None,1790.2689865999855,None,1790.2689865999855,None,1790.2689865999855,None,1790.2689865999855,None,1790.2689865999855,None,1790.2689865999855,None,1790.2689865999855,None,0.7627606000751257,,,,,,,alefn,001,2021_Sep_28_1933,shapka,2021.1.4,59.98080614949972,
1,8,abs,left,left.png,left.png,non,Чашки,Шашки,car10.png,music7.png,animal5.png,car2.png,-298,-298,298,298,-316,316,-316,316,"[-200, 0]","[200, 0]","[81, 81]","[81, 81]","[81, 81]","[81, 81]",4,music9.png,car4.png,music10.png,car8.png,None,None,None,None,-298,-298,298,298,-298,-298,298,298,85,-85,85,-85,200,-200,200,-200,"[81, 81]","[81, 81]","[81, 81]","[81, 81]","[81, 81]","[81, 81]","[81, 81]","[81, 81]",,,,,0,66,66,33,,,,,,,,,,,,,,,,,,,,,,,1791.0789241000311,None,1791.0789241000311,None,1791.0789241000311,None,1791.2916894999798,None,1791.6980187000008,None,1791.6980187000008,None,1791.6980187000008,None,1792.1083686000202,None,,,,,,,,,,,,,,,,,,,,,1793.1361969000427,None,a,1793.1361969000427,None,1793.1361969000427,None,1793.1361969000427,None,1793.1361969000427,None,1793.1361969000427,None,1793.1361969000427,None,1793.1361969000427,None,1793.1361969000427,None,1793.1361969000427,None,1793.1361969000427,None,1793.1361969000427,None,1793.1361969000427,None,1793.1361969000427,None,1.4554807000095025,,,,,,,alefn,001,2021_Sep_28_1933,shapka,2021.1.4,59.98080614949972,
2,5,pre,right,right.png,right.png,bas,Яблоки,Пряники,fruit2.png,car3.png,tool8.png,animal9.png,298,298,-298,-298,316,-316,316,-316,"[200, 0]","[-200, 0]","[81, 81]","[81, 81]","[81, 81]","[81, 81]",2,None,None,None,None,None,None,None,None,298,298,-298,-298,298,298,-298,-298,85,-85,85,-85,200,-200,200,-200,"[81, 81]","[81, 81]","[81, 81]","[81, 81]","[81, 81]","[81, 81]","[81, 81]","[81, 81]",,,,,0,67,67,317,,,,,,,,,,,,,,,,,,,,,,,1794.6355516000185,None,1794.6355516000185,None,1794.6355516000185,None,1794.841769300052,None,1795.2478009000188,None,1795.2478009000188,None,1795.2478009000188,None,1795.6584677000064,None,,,,,,,,,,,,,,,,,,,,,1796.6771001999732,None,p,1796.6771001999732,None,1796.6771001999732,None,1796.6771001999732,None,1796.6771001999732,None,1796.6771001999732,None,1796.6771001999732,None,1796.6771001999732,None,1796.6771001999732,None,1796.6771001999732,None,1796.6771001999732,None,1796.6771001999732,None,1796.6771001999732,None,1796.6771001999732,None,0.7786927999695763,,,,,,,alefn,001,2021_Sep_28_1933,shapka,2021.1.4,59.98080614949972,
1,7,pre,left,left.png,left.png,bas,Чашки,Шашки,tableware4.png,car3.png,music1.png,car6.png,-298,-298,298,298,85,-85,85,-85,"[-200, 0]","[200, 0]","[81, 81]","[81, 81]","[81, 81]","[81, 81]",4,music2.png,music8.png,music4.png,animal9.png,None,None,None,None,-298,-298,298,298,-298,-298,298,298,-316,316,-316,316,200,-200,200,-200,"[81, 81]","[81, 81]","[81, 81]","[81, 81]","[81, 81]","[81, 81]","[81, 81]","[81, 81]",,,,,0,68,68,178,,,,,,,,,,,,,,,,,,,,,,,1797.5156666999683,None,1797.5156666999683,None,1797.5156666999683,None,1797.7254348000279,None,1798.137774300063,None,1798.137774300063,None,1798.137774300063,None,1798.5420438,None,,,,,,,,,,,,,,,,,,,,,1799.5776730000507,None,p,1799.5776730000507,None,1799.5776730000507,None,1799.5776730000507,None,1799.5776730000507,None,1799.5776730000507,None,1799.5776730000507,None,1799.5776730000507,None,1799.5776730000507,None,1799.5776730000507,None,1799.5776730000507,None,1799.5776730000507,None,1799.5776730000507,None,1799.5776730000507,None,0.6622570999898016,,,,,,,alefn,001,2021_Sep_28_1933,shapka,2021.1.4,59.98080614949972,
2,7,pre,right,right.png,right.png,bas,Стулья,Брусья,furniture3.png,tool8.png,car3.png,animal5.png,298,298,-298,-298,-85,85,-85,85,"[200, 0]","[-200, 0]","[81, 81]","[81, 81]","[81, 81]","[81, 81]",4,tool4.png,music6.png,tool1.png,animal2.png,None,None,None,None,298,298,-298,-298,298,298,-298,-298,316,-316,316,-316,200,-200,200,-200,"[81, 81]","[81, 81]","[81, 81]","[81, 81]","[81, 81]","[81, 81]","[81, 81]","[81, 81]",,,,,0,69,69,268,,,,,,,,,,,,,,,,,,,,,,,1800.28204369999,None,1800.28204369999,None,1800.28204369999,None,1800.4922379000345,None,1800.8976638000458,None,1800.8976638000458,None,1800.8976638000458,None,1801.3090223000618,None,,,,,,,,,,,,,,,,,,,,,1802.3348339999793,None,p,1802.3348339999793,None,1802.3348339999793,None,1802.3348339999793,None,1802.3348339999793,None,1802.3348339999793,None,1802.3348339999793,None,1802.3348339999793,None,1802.3348339999793,None,1802.3348339999793,None,1802.3348339999793,None,1802.3348339999793,None,1802.3348339999793,None,1802.3348339999793,None,1.2249935999279842,,,,,,,alefn,001,2021_Sep_28_1933,shapka,2021.1.4,59.98080614949972,
2,5,pre,right,right.png,right.png,bas,Чашки,Шашки,tableware3.png,animal3.png,car2.png,animal8.png,298,298,-298,-298,-316,316,-316,316,"[200, 0]","[-200, 0]","[81, 81]","[81, 81]","[81, 81]","[81, 81]",2,None,None,None,None,None,None,None,None,298,298,-298,-298,298,298,-298,-298,-85,85,-85,85,-200,200,-200,200,"[81, 81]","[81, 81]","[81, 81]","[81, 81]","[81, 81]","[81, 81]","[81, 81]","[81, 81]",,,,,0,70,70,287,,,,,,,,,,,,,,,,,,,,,,,1803.59792249999,None,1803.59792249999,None,1803.59792249999,None,1803.808983099996,None,1804.2136726999888,None,1804.2136726999888,None,1804.2136726999888,None,1804.6255622999743,None,,,,,,,,,,,,,,,,,,,,,1805.6461624000221,None,p,1805.6461624000221,None,1805.6461624000221,None,1805.6461624000221,None,1805.6461624000221,None,1805.6461624000221,None,1805.6461624000221,None,1805.6461624000221,None,1805.6461624000221,None,1805.6461624000221,None,1805.6461624000221,None,1805.6461624000221,None,1805.6461624000221,None,1805.6461624000221,None,0.7615944999270141,,,,,,,alefn,001,2021_Sep_28_1933,shapka,2021.1.4,59.98080614949972,
1,6,abs,left,left.png,left.png,non,Стулья,Брусья,music6.png,animal3.png,tool2.png,car9.png,-298,-298,298,298,-316,316,-316,316,"[-200, 0]","[200, 0]","[81, 81]","[81, 81]","[81, 81]","[81, 81]",2,None,None,None,None,None,None,None,None,-298,-298,298,298,-298,-298,298,298,-85,85,-85,85,-200,200,-200,200,"[81, 81]","[81, 81]","[81, 81]","[81, 81]","[81, 81]","[81, 81]","[81, 81]","[81, 81]",,,,,0,71,71,15,,,,,,,,,,,,,,,,,,,,,,,1806.4559345999733,None,1806.4559345999733,None,1806.4559345999733,None,1806.6591364999767,None,1807.0638391999528,None,1807.0638391999528,None,1807.0638391999528,None,1807.4757356999908,None,,,,,,,,,,,,,,,,,,,,,1808.490883099963,None,a,1808.490883099963,None,1808.490883099963,None,1808.490883099963,None,1808.490883099963,None,1808.490883099963,None,1808.490883099963,None,1808.490883099963,None,1808.490883099963,None,1808.490883099963,None,1808.490883099963,None,1808.490883099963,None,1808.490883099963,None,1808.490883099963,None,1.8448471000883728,,,,,,,alefn,001,2021_Sep_28_1933,shapka,2021.1.4,59.98080614949972,
1,9,pre,left,left.png,left.png,bas,Чашки,Шашки,tableware4.png,animal8.png,car1.png,animal7.png,-298,-298,298,298,-200,200,-200,200,"[-200, 0]","[200, 0]","[81, 81]","[81, 81]","[81, 81]","[81, 81]",6,car5.png,animal3.png,animal6.png,car9.png,music10.png,music4.png,music5.png,animal2.png,-298,-298,298,298,-298,-298,298,298,-85,85,-85,85,316,-316,316,-316,"[81, 81]","[81, 81]","[81, 81]","[81, 81]","[81, 81]","[81, 81]","[81, 81]","[81, 81]",,,,,0,72,72,190,,,,,,,,,,,,,,,,,,,,,,,1810.388957499992,None,1810.388957499992,None,1810.388957499992,None,1810.5925449000206,None,1810.9972816000227,None,1810.9972816000227,None,1810.9972816000227,None,1811.4092566999607,None,,,,,,,,,,,,,,,,,,,,,1812.4537432000507,None,p,1812.4537432000507,None,1812.4537432000507,None,1812.4537432000507,None,1812.4537432000507,None,1812.4537432000507,None,1812.4537432000507,None,1812.4537432000507,None,1812.4537432000507,None,1812.4537432000507,None,1812.4537432000507,None,1812.4537432000507,None,1812.4537432000507,None,1812.4537432000507,None,0.42580970004200935,,,,,,,alefn,001,2021_Sep_28_1933,shapka,2021.1.4,59.98080614949972,
1,7,pre,left,left.png,left.png,bas,Яблоки,Пряники,fruit3.png,car8.png,animal5.png,tool1.png,-298,-298,298,298,-85,85,-85,85,"[-200, 0]","[200, 0]","[81, 81]","[81, 81]","[81, 81]","[81, 81]",4,animal3.png,car9.png,animal6.png,music4.png,None,None,None,None,-298,-298,298,298,-298,-298,298,298,-316,316,-316,316,200,-200,200,-200,"[81, 81]","[81, 81]","[81, 81]","[81, 81]","[81, 81]","[81, 81]","[81, 81]","[81, 81]",,,,,0,73,73,212,,,,,,,,,,,,,,,,,,,,,,,1812.9318443000084,None,1812.9318443000084,None,1812.9318443000084,None,1813.1426576999947,None,1813.548548300052,None,1813.548548300052,None,1813.548548300052,None,1813.9593660000246,None,,,,,,,,,,,,,,,,,,,,,1814.98327159998,None,p,1814.98327159998,None,1814.98327159998,None,1814.98327159998,None,1814.98327159998,None,1814.98327159998,None,1814.98327159998,None,1814.98327159998,None,1814.98327159998,None,1814.98327159998,None,1814.98327159998,None,1814.98327159998,None,1814.98327159998,None,1814.98327159998,None,0.784611799987033,,,,,,,alefn,001,2021_Sep_28_1933,shapka,2021.1.4,59.98080614949972,
2,7,pre,right,right.png,right.png,bas,Рубашки,Барашки,clothes4.png,animal1.png,tool2.png,tool4.png,298,298,-298,-298,-316,316,-316,316,"[200, 0]","[-200, 0]","[81, 81]","[81, 81]","[81, 81]","[81, 81]",4,tool8.png,car6.png,car7.png,tool10.png,None,None,None,None,298,298,-298,-298,298,298,-298,-298,85,-85,85,-85,200,-200,200,-200,"[81, 81]","[81, 81]","[81, 81]","[81, 81]","[81, 81]","[81, 81]","[81, 81]","[81, 81]",,,,,0,74,74,238,,,,,,,,,,,,,,,,,,,,,,,1815.8182116999524,None,1815.8182116999524,None,1815.8182116999524,None,1816.0262242000317,None,1816.4306747999508,None,1816.4306747999508,None,1816.4306747999508,None,1816.8429144000402,None,,,,,,,,,,,,,,,,,,,,,1817.8691085999599,None,p,1817.8691085999599,None,1817.8691085999599,None,1817.8691085999599,None,1817.8691085999599,None,1817.8691085999599,None,1817.8691085999599,None,1817.8691085999599,None,1817.8691085999599,None,1817.8691085999599,None,1817.8691085999599,None,1817.8691085999599,None,1817.8691085999599,None,1817.8691085999599,None,1.0347585999406874,,,,,,,alefn,001,2021_Sep_28_1933,shapka,2021.1.4,59.98080614949972,
2,6,abs,right,right.png,right.png,non,Яблоки,Пряники,animal10.png,tool1.png,tool2.png,animal8.png,298,298,-298,-298,316,-316,316,-316,"[200, 0]","[-200, 0]","[81, 81]","[81, 81]","[81, 81]","[81, 81]",2,None,None,None,None,None,None,None,None,298,298,-298,-298,298,298,-298,-298,-85,85,-85,85,-200,200,-200,200,"[81, 81]","[81, 81]","[81, 81]","[81, 81]","[81, 81]","[81, 81]","[81, 81]","[81, 81]",,,,,0,75,75,91,,,,,,,,,,,,,,,,,,,,,,,1818.9515549000353,None,1818.9515549000353,None,1818.9515549000353,None,1819.1596327000298,None,1819.5654823000077,None,1819.5654823000077,None,1819.5654823000077,None,1819.9763042000122,None,,,,,,,,,,,,,,,,,,,,,1821.0045766000403,None,a,1821.0045766000403,None,1821.0045766000403,None,1821.0045766000403,None,1821.0045766000403,None,1821.0045766000403,None,1821.0045766000403,None,1821.0045766000403,None,1821.0045766000403,None,1821.0045766000403,None,1821.0045766000403,None,1821.0045766000403,None,1821.0045766000403,None,1821.0045766000403,None,0.8512053999584168,,,,,,,alefn,001,2021_Sep_28_1933,shapka,2021.1.4,59.98080614949972,
2,10,abs,right,right.png,right.png,non,Яблоки,Пряники,car2.png,car1.png,animal7.png,music9.png,298,298,-298,-298,316,-316,316,-316,"[200, 0]","[-200, 0]","[81, 81]","[81, 81]","[81, 81]","[81, 81]",6,tool10.png,music8.png,car5.png,animal2.png,music1.png,car3.png,animal6.png,music4.png,298,298,-298,-298,298,298,-298,-298,85,-85,85,-85,200,-200,200,-200,"[81, 81]","[81, 81]","[81, 81]","[81, 81]","[81, 81]","[81, 81]","[81, 81]","[81, 81]",,,,,0,76,76,101,,,,,,,,,,,,,,,,,,,,,,,1821.9119674999965,None,1821.9119674999965,None,1821.9119674999965,None,1822.126509099966,None,1822.52791840001,None,1822.52791840001,None,1822.52791840001,None,1822.9431647000602,None,,,,,,,,,,,,,,,,,,,,,1823.9734579999931,None,a,1823.9734579999931,None,1823.9734579999931,None,1823.9734579999931,None,1823.9734579999931,None,1823.9734579999931,None,1823.9734579999931,None,1823.9734579999931,None,1823.9734579999931,None,1823.9734579999931,None,1823.9734579999931,None,1823.9734579999931,None,1823.9734579999931,None,1823.9734579999931,None,1.0342879000818357,,,,,,,alefn,001,2021_Sep_28_1933,shapka,2021.1.4,59.98080614949972,
2,5,pre,right,right.png,right.png,bas,Рубашки,Барашки,clothes5.png,tool9.png,tool7.png,music1.png,298,298,-298,-298,-316,316,-316,316,"[200, 0]","[-200, 0]","[81, 81]","[81, 81]","[81, 81]","[81, 81]",2,None,None,None,None,None,None,None,None,298,298,-298,-298,298,298,-298,-298,-85,85,-85,85,-200,200,-200,200,"[81, 81]","[81, 81]","[81, 81]","[81, 81]","[81, 81]","[81, 81]","[81, 81]","[81, 81]",,,,,0,77,77,229,,,,,,,,,,,,,,,,,,,,,,,1825.0494181000395,None,1825.0494181000395,None,1825.0494181000395,None,1825.2600161000155,None,1825.6658408000367,None,1825.6658408000367,None,1825.6658408000367,None,1826.0765653999988,None,,,,,,,,,,,,,,,,,,,,,1827.0950912999688,None,p,1827.0950912999688,None,1827.0950912999688,None,1827.0950912999688,None,1827.0950912999688,None,1827.0950912999688,None,1827.0950912999688,None,1827.0950912999688,None,1827.0950912999688,None,1827.0950912999688,None,1827.0950912999688,None,1827.0950912999688,None,1827.0950912999688,None,1827.0950912999688,None,0.728669699979946,,,,,,,alefn,001,2021_Sep_28_1933,shapka,2021.1.4,59.98080614949972,
