arr_code,srch_code,type,semi_field,arr_1,arr_2,cat,target,target_2,s1,s2,s3,s4,x1,x2,x3,x4,y1,y2,y3,y4,postr,postr_2,ss1,ss2,ss3,ss4,set_size,s5,s6,s7,s8,s9,s10,s11,s12,x5,x6,x7,x8,x9,x10,x11,x12,y5,y6,y7,y8,y9,y10,y11,y12,ss5,ss6,ss7,ss8,ss9,ss10,ss11,ss12,train.thisRepN,train.thisTrialN,train.thisN,train.thisIndex,block_bas.thisRepN,block_bas.thisTrialN,block_bas.thisN,block_bas.thisIndex,block_sup.thisRepN,block_sup.thisTrialN,block_sup.thisN,block_sup.thisIndex,instruction.started,instruction.stopped,key_resp.keys,key_resp.rt,key_resp.started,key_resp.stopped,polygon.started,polygon.stopped,key_resp_2.keys,key_resp_2.rt,key_resp_2.started,key_resp_2.stopped,text.started,text.stopped,key_resp_3.keys,key_resp_3.rt,key_resp_3.started,key_resp_3.stopped,polygon_2.started,polygon_2.stopped,arr1.started,arr1.stopped,arr2.started,arr2.stopped,polygon_3.started,polygon_3.stopped,polygon_4.started,polygon_4.stopped,word1.started,word1.stopped,word2.started,word2.stopped,polygon_5.started,polygon_5.stopped,polygon_6.started,polygon_6.stopped,key_resp_4.keys,key_resp_4.rt,key_resp_4.started,key_resp_4.stopped,s_1.started,s_1.stopped,s_2.started,s_2.stopped,s_3.started,s_3.stopped,s_4.started,s_4.stopped,text_3.started,text_3.stopped,key_resp_5.keys,key_resp_5.rt,key_resp_5.started,key_resp_5.stopped,polygon_8.started,polygon_8.stopped,key_resp_6.keys,key_resp_6.rt,key_resp_6.started,key_resp_6.stopped,sti1.started,sti1.stopped,sti2.started,sti2.stopped,sti3.started,sti3.stopped,sti4.started,sti4.stopped,sti5.started,sti5.stopped,sti6.started,sti6.stopped,sti7.started,sti7.stopped,sti8.started,sti8.stopped,sti9.started,sti9.stopped,sti10.started,sti10.stopped,sti11.started,sti11.stopped,sti12.started,sti12.stopped,text_2.started,text_2.stopped,key_resp_7.keys,key_resp_7.rt,key_resp_7.started,key_resp_7.stopped,fin.started,fin.stopped,key_resp_8.keys,key_resp_8.rt,key_resp_8.started,key_resp_8.stopped,participant,session,date,expName,psychopyVersion,frameRate,
,,,,,,,,,,,,,,,,,,,,,,,,,,,,,,,,,,,,,,,,,,,,,,,,,,,,,,,,,,,,,,,,,,,,,,,,25.75344520015642,None,space,73.93525960016996,25.75344520015642,None,,,,,,,,,,,,,,,,,,,,,,,,,,,,,,,,,,,,,,,,,,,,,,,,,,,,,,,,,,,,,,,,,,,,,,,,,,,,,,,,,,,,,,,,,,,frol_pilot,001,2021_Sep_09_1514,shapka,2021.1.4,None,
,,,,,,,,,,,,,,,,,,,,,,,,,,,,,,,,,,,,,,,,,,,,,,,,,,,,,,,,,,,,,,,,,,,,,,,,,,,,,,99.70937830023468,None,right,2.1041902997530997,99.70937830023468,None,,,,,,,,,,,,,,,,,,,,,,,,,,,,,,,,,,,,,,,,,,,,,,,,,,,,,,,,,,,,,,,,,,,,,,,,,,,,,,,,,,,,,frol_pilot,001,2021_Sep_09_1514,shapka,2021.1.4,None,
,,,,,,,,,,,,,,,,,,,,,,,,,,,,,,,,,,,,,,,,,,,,,,,,,,,,,,,,,,,,,,,,,,,,,,,,,,,,,,,,,,,,101.84257260011509,None,space,3.949783000163734,101.84257260011509,None,,,,,,,,,,,,,,,,,,,,,,,,,,,,,,,,,,,,,,,,,,,,,,,,,,,,,,,,,,,,,,,,,,,,,,,,,,,,,,,frol_pilot,001,2021_Sep_09_1514,shapka,2021.1.4,None,
1,5,pre,left,left.png,left.png,bas,Стулья,Брусья,furniture1.png,car4.png,tool5.png,tool2.png,-298,-298,298,298,316,-316,316,-316,"[-200, 0]","[200, 0]","[104, 104]","[104, 104]","[104, 104]","[104, 104]",,,,,,,,,,,,,,,,,,,,,,,,,,,,,,,,,,0,0,0,2,,,,,,,,,,,,,,,,,,,,,,,,,,,105.9308529002592,None,105.9308529002592,None,105.9308529002592,None,106.02582680014893,None,106.43674580007792,None,106.43674580007792,None,106.43674580007792,None,106.82589100021869,None,107.84506160020828,None,p,2.723381800111383,107.84506160020828,None,107.84506160020828,None,107.84506160020828,None,107.84506160020828,None,107.84506160020828,None,,,,,,,,,,,,,,,,,,,,,,,,,,,,,,,,,,,,,,,,,,,,,,,,,frol_pilot,001,2021_Sep_09_1514,shapka,2021.1.4,None,
1,5,pre,left,left.png,left.png,bas,Чашки,Шашки,tableware3.png,car2.png,animal2.png,music3.png,-298,-298,298,298,-316,316,-316,316,"[-200, 0]","[200, 0]","[104, 104]","[104, 104]","[104, 104]","[104, 104]",,,,,,,,,,,,,,,,,,,,,,,,,,,,,,,,,,0,1,1,4,,,,,,,,,,,,,,,,,,,,,,,,,,,110.6258111000061,None,110.6258111000061,None,110.6258111000061,None,110.82612340012565,None,111.25326650030911,None,111.25326650030911,None,111.25326650030911,None,111.65946310013533,None,112.67408200027421,None,p,3.0222122999839485,112.67408200027421,None,112.67408200027421,None,112.67408200027421,None,112.67408200027421,None,112.67408200027421,None,,,,,,,,,,,,,,,,,,,,,,,,,,,,,,,,,,,,,,,,,,,,,,,,,frol_pilot,001,2021_Sep_09_1514,shapka,2021.1.4,None,
2,6,abs,right,right.png,right.png,sup,Фрукты,Бухты,car8.png,music2.png,car2.png,car1.png,298,298,-298,-298,316,-316,316,-316,"[200, 0]","[-200, 0]","[104, 104]","[104, 104]","[104, 104]","[104, 104]",,,,,,,,,,,,,,,,,,,,,,,,,,,,,,,,,,0,2,2,9,,,,,,,,,,,,,,,,,,,,,,,,,,,115.76201230008155,None,115.76201230008155,None,115.76201230008155,None,115.97631580010056,None,116.38444870011881,None,116.38444870011881,None,116.38444870011881,None,116.79275320004672,None,117.80930400034413,None,a,2.711109499912709,117.80930400034413,None,117.80930400034413,None,117.80930400034413,None,117.80930400034413,None,117.80930400034413,None,,,,,,,,,,,,,,,,,,,,,,,,,,,,,,,,,,,,,,,,,,,,,,,,,frol_pilot,001,2021_Sep_09_1514,shapka,2021.1.4,None,
2,5,pre,right,right.png,right.png,bas,Стулья,Брусья,furniture4.png,music5.png,music3.png,tool4.png,298,298,-298,-298,316,-316,316,-316,"[200, 0]","[-200, 0]","[104, 104]","[104, 104]","[104, 104]","[104, 104]",,,,,,,,,,,,,,,,,,,,,,,,,,,,,,,,,,0,3,3,10,,,,,,,,,,,,,,,,,,,,,,,,,,,120.58193540014327,None,120.58193540014327,None,120.58193540014327,None,120.7933390000835,None,121.19814220024273,None,121.19814220024273,None,121.19814220024273,None,121.61003940040246,None,122.62339300010353,None,p,1.1531174001283944,122.62339300010353,None,122.62339300010353,None,122.62339300010353,None,122.62339300010353,None,122.62339300010353,None,,,,,,,,,,,,,,,,,,,,,,,,,,,,,,,,,,,,,,,,,,,,,,,,,frol_pilot,001,2021_Sep_09_1514,shapka,2021.1.4,None,
2,5,pre,right,right.png,right.png,bas,Чашки,Шашки,tableware1.png,tool1.png,music5.png,music1.png,298,298,-298,-298,-316,316,-316,316,"[200, 0]","[-200, 0]","[104, 104]","[104, 104]","[104, 104]","[104, 104]",,,,,,,,,,,,,,,,,,,,,,,,,,,,,,,,,,0,4,4,12,,,,,,,,,,,,,,,,,,,,,,,,,,,123.83659770013765,None,123.83659770013765,None,123.83659770013765,None,124.04347050003707,None,124.44824520032853,None,124.44824520032853,None,124.44824520032853,None,124.85995710035786,None,125.88169230008498,None,p,2.8948503001593053,125.88169230008498,None,125.88169230008498,None,125.88169230008498,None,125.88169230008498,None,125.88169230008498,None,,,,,,,,,,,,,,,,,,,,,,,,,,,,,,,,,,,,,,,,,,,,,,,,,frol_pilot,001,2021_Sep_09_1514,shapka,2021.1.4,None,
2,5,pre,right,right.png,right.png,bas,Рубашки,Барашки,clothes5.png,music4.png,animal6.png,tool1.png,298,298,-298,-298,-316,316,-316,316,"[200, 0]","[-200, 0]","[104, 104]","[104, 104]","[104, 104]","[104, 104]",,,,,,,,,,,,,,,,,,,,,,,,,,,,,,,,,,0,5,5,14,,,,,,,,,,,,,,,,,,,,,,,,,,,128.82520110020414,None,128.82520110020414,None,128.82520110020414,None,129.02689740015194,None,129.4397701001726,None,129.4397701001726,None,129.4397701001726,None,129.84358069999143,None,130.8557320004329,None,p,0.784735799767077,130.8557320004329,None,130.8557320004329,None,130.8557320004329,None,130.8557320004329,None,130.8557320004329,None,,,,,,,,,,,,,,,,,,,,,,,,,,,,,,,,,,,,,,,,,,,,,,,,,frol_pilot,001,2021_Sep_09_1514,shapka,2021.1.4,None,
1,5,pre,left,left.png,left.png,sup,Посуда,Валюта,tableware4.png,animal1.png,tool2.png,animal2.png,-298,-298,298,298,-316,316,-316,316,"[-200, 0]","[200, 0]","[104, 104]","[104, 104]","[104, 104]","[104, 104]",,,,,,,,,,,,,,,,,,,,,,,,,,,,,,,,,,0,6,6,5,,,,,,,,,,,,,,,,,,,,,,,,,,,131.691971400287,None,131.691971400287,None,131.691971400287,None,131.8936959002167,None,132.30280720023438,None,132.30280720023438,None,132.30280720023438,None,132.71040790015832,None,133.72489600023255,None,a,0.7636600998230278,133.72489600023255,None,133.72489600023255,None,133.72489600023255,None,133.72489600023255,None,133.72489600023255,None,,,,,,,,,,,,,,,,,,,,,,,,,,,,,,,,,,,,,,,,,,,,,,,,,frol_pilot,001,2021_Sep_09_1514,shapka,2021.1.4,None,
1,5,pre,left,left.png,left.png,sup,Одежда,Невежда,clothes2.png,animal6.png,tool6.png,tool1.png,-298,-298,298,298,-316,316,-316,316,"[-200, 0]","[200, 0]","[104, 104]","[104, 104]","[104, 104]","[104, 104]",,,,,,,,,,,,,,,,,,,,,,,,,,,,,,,,,,0,7,7,7,,,,,,,,,,,,,,,,,,,,,,,,,,,134.53269290039316,None,134.53269290039316,None,134.53269290039316,None,134.74384120013565,None,135.15368830040097,None,135.15368830040097,None,135.15368830040097,None,135.56051080022007,None,136.5745282000862,None,a,0.9457788001745939,136.5745282000862,None,136.5745282000862,None,136.5745282000862,None,136.5745282000862,None,136.5745282000862,None,,,,,,,,,,,,,,,,,,,,,,,,,,,,,,,,,,,,,,,,,,,,,,,,,frol_pilot,001,2021_Sep_09_1514,shapka,2021.1.4,None,
1,6,abs,left,left.png,left.png,sup,Фрукты,Бухты,music3.png,tool2.png,animal3.png,car2.png,-298,-298,298,298,316,-316,316,-316,"[-200, 0]","[200, 0]","[104, 104]","[104, 104]","[104, 104]","[104, 104]",,,,,,,,,,,,,,,,,,,,,,,,,,,,,,,,,,0,8,8,1,,,,,,,,,,,,,,,,,,,,,,,,,,,137.58580030035228,None,137.58580030035228,None,137.58580030035228,None,137.79396790033206,None,138.1989350002259,None,138.1989350002259,None,138.1989350002259,None,138.6106718000956,None,139.62328440044075,None,a,2.81721100024879,139.62328440044075,None,139.62328440044075,None,139.62328440044075,None,139.62328440044075,None,139.62328440044075,None,,,,,,,,,,,,,,,,,,,,,,,,,,,,,,,,,,,,,,,,,,,,,,,,,frol_pilot,001,2021_Sep_09_1514,shapka,2021.1.4,None,
2,6,abs,right,right.png,right.png,bas,Яблоки,Пряники,animal4.png,music3.png,tool4.png,tool6.png,298,298,-298,-298,316,-316,316,-316,"[200, 0]","[-200, 0]","[104, 104]","[104, 104]","[104, 104]","[104, 104]",,,,,,,,,,,,,,,,,,,,,,,,,,,,,,,,,,0,9,9,8,,,,,,,,,,,,,,,,,,,,,,,,,,,142.50563740031794,None,142.50563740031794,None,142.50563740031794,None,142.71100650029257,None,143.12068680021912,None,143.12068680021912,None,143.12068680021912,None,143.52745790034533,None,144.541772400029,None,a,3.1225057998672128,144.541772400029,None,144.541772400029,None,144.541772400029,None,144.541772400029,None,144.541772400029,None,,,,,,,,,,,,,,,,,,,,,,,,,,,,,,,,,,,,,,,,,,,,,,,,,frol_pilot,001,2021_Sep_09_1514,shapka,2021.1.4,None,
1,5,pre,left,left.png,left.png,bas,Рубашки,Барашки,clothes1.png,tool6.png,animal1.png,music2.png,-298,-298,298,298,-316,316,-316,316,"[-200, 0]","[200, 0]","[104, 104]","[104, 104]","[104, 104]","[104, 104]",,,,,,,,,,,,,,,,,,,,,,,,,,,,,,,,,,0,10,10,6,,,,,,,,,,,,,,,,,,,,,,,,,,,147.73088380042464,None,147.73088380042464,None,147.73088380042464,None,147.9443892003037,None,148.34970830008388,None,148.34970830008388,None,148.34970830008388,None,148.76114050019532,None,149.7929275003262,None,p,0.5357226999476552,149.7929275003262,None,149.7929275003262,None,149.7929275003262,None,149.7929275003262,None,149.7929275003262,None,,,,,,,,,,,,,,,,,,,,,,,,,,,,,,,,,,,,,,,,,,,,,,,,,frol_pilot,001,2021_Sep_09_1514,shapka,2021.1.4,None,
2,5,pre,right,right.png,right.png,sup,Мебель,Стебель,furniture5.png,music1.png,car4.png,tool5.png,298,298,-298,-298,316,-316,316,-316,"[200, 0]","[-200, 0]","[104, 104]","[104, 104]","[104, 104]","[104, 104]",,,,,,,,,,,,,,,,,,,,,,,,,,,,,,,,,,0,11,11,11,,,,,,,,,,,,,,,,,,,,,,,,,,,150.37665150035173,None,150.37665150035173,None,150.37665150035173,None,150.57793080015108,None,150.9844349999912,None,150.9844349999912,None,150.9844349999912,None,151.3947028000839,None,152.40776070021093,None,p,1.728672199882567,152.40776070021093,None,152.40776070021093,None,152.40776070021093,None,152.40776070021093,None,152.40776070021093,None,,,,,,,,,,,,,,,,,,,,,,,,,,,,,,,,,,,,,,,,,,,,,,,,,frol_pilot,001,2021_Sep_09_1514,shapka,2021.1.4,None,
2,5,pre,right,right.png,right.png,sup,Одежда,Невежда,clothes3.png,car1.png,tool1.png,car4.png,298,298,-298,-298,-316,316,-316,316,"[200, 0]","[-200, 0]","[104, 104]","[104, 104]","[104, 104]","[104, 104]",,,,,,,,,,,,,,,,,,,,,,,,,,,,,,,,,,0,12,12,15,,,,,,,,,,,,,,,,,,,,,,,,,,,154.20181680005044,None,154.20181680005044,None,154.20181680005044,None,154.4115064004436,None,154.81630549998954,None,154.81630549998954,None,154.81630549998954,None,155.22811530018225,None,156.24406400043517,None,p,0.7004304002039135,156.24406400043517,None,156.24406400043517,None,156.24406400043517,None,156.24406400043517,None,156.24406400043517,None,,,,,,,,,,,,,,,,,,,,,,,,,,,,,,,,,,,,,,,,,,,,,,,,,frol_pilot,001,2021_Sep_09_1514,shapka,2021.1.4,None,
1,5,pre,left,left.png,left.png,sup,Мебель,Стебель,furniture2.png,tool5.png,music1.png,animal6.png,-298,-298,298,298,316,-316,316,-316,"[-200, 0]","[200, 0]","[104, 104]","[104, 104]","[104, 104]","[104, 104]",,,,,,,,,,,,,,,,,,,,,,,,,,,,,,,,,,0,13,13,3,,,,,,,,,,,,,,,,,,,,,,,,,,,157.00057350005955,None,157.00057350005955,None,157.00057350005955,None,157.21161990007386,None,157.61644920008257,None,157.61644920008257,None,157.61644920008257,None,158.02832640009,None,159.0411451002583,None,a,0.4552250998094678,159.0411451002583,None,159.0411451002583,None,159.0411451002583,None,159.0411451002583,None,159.0411451002583,None,,,,,,,,,,,,,,,,,,,,,,,,,,,,,,,,,,,,,,,,,,,,,,,,,frol_pilot,001,2021_Sep_09_1514,shapka,2021.1.4,None,
2,5,pre,right,right.png,right.png,sup,Посуда,Валюта,tableware2.png,animal2.png,music2.png,animal3.png,298,298,-298,-298,-316,316,-316,316,"[200, 0]","[-200, 0]","[104, 104]","[104, 104]","[104, 104]","[104, 104]",,,,,,,,,,,,,,,,,,,,,,,,,,,,,,,,,,0,14,14,13,,,,,,,,,,,,,,,,,,,,,,,,,,,159.53454870032147,None,159.53454870032147,None,159.53454870032147,None,159.74510120041668,None,160.14992420002818,None,160.14992420002818,None,160.14992420002818,None,160.56167200021446,None,161.5813071001321,None,p,0.4430497996509075,161.5813071001321,None,161.5813071001321,None,161.5813071001321,None,161.5813071001321,None,161.5813071001321,None,,,,,,,,,,,,,,,,,,,,,,,,,,,,,,,,,,,,,,,,,,,,,,,,,frol_pilot,001,2021_Sep_09_1514,shapka,2021.1.4,None,
1,6,abs,left,left.png,left.png,bas,Яблоки,Пряники,tool1.png,tool4.png,car1.png,animal1.png,-298,-298,298,298,316,-316,316,-316,"[-200, 0]","[200, 0]","[104, 104]","[104, 104]","[104, 104]","[104, 104]",,,,,,,,,,,,,,,,,,,,,,,,,,,,,,,,,,0,15,15,0,,,,,,,,,,,,,,,,,,,,,,,,,,,162.0735539002344,None,162.0735539002344,None,162.0735539002344,None,162.27853310015053,None,162.68329950002953,None,162.68329950002953,None,162.68329950002953,None,163.09511370025575,None,164.10689010005444,None,p,0.8134829998016357,164.10689010005444,None,164.10689010005444,None,164.10689010005444,None,164.10689010005444,None,164.10689010005444,None,,,,,,,,,,,,,,,,,,,,,,,,,,,,,,,,,,,,,,,,,,,,,,,,,frol_pilot,001,2021_Sep_09_1514,shapka,2021.1.4,None,
,,,,,,,,,,,,,,,,,,,,,,,,,,,,,,,,,,,,,,,,,,,,,,,,,,,,,,,,,,,,,,,,,,,,,,,,,,,,,,,,,,,,,,,,,,,,,,,,,,,,,,,,,,,,,,,,,,,,,,,,164.9453348000534,None,space,2.2950937002897263,164.9453348000534,None,,,,,,,,,,,,,,,,,,,,,,,,,,,,,,,,,,,,,,,,,,,frol_pilot,001,2021_Sep_09_1514,shapka,2021.1.4,None,
1,9,pre,left,left.png,left.png,bas,Стулья,Брусья,furniture2.png,tool5.png,tool6.png,music10.png,-298,-298,298,298,85,-85,85,-85,"[-200, 0]","[200, 0]","[81, 81]","[81, 81]","[81, 81]","[81, 81]",6,tool8.png,music1.png,animal6.png,music7.png,music9.png,tool3.png,music2.png,music4.png,-298,-298,298,298,-298,-298,298,298,-316,316,-316,316,-200,200,-200,200,"[81, 81]","[81, 81]","[81, 81]","[81, 81]","[81, 81]","[81, 81]","[81, 81]","[81, 81]",,,,,0,0,0,161,,,,,,,,,,,,,,,,,,,,,,,None,None,None,None,None,None,None,None,167.8976648002863,None,167.8976648002863,None,167.8976648002863,None,168.27870930032805,None,,,,,,,,,,,,,,,,,,,,,169.31705270009115,None,p,2.371514800004661,169.31705270009115,None,169.31705270009115,None,169.31705270009115,None,169.31705270009115,None,169.31705270009115,None,169.31705270009115,None,169.31705270009115,None,169.31705270009115,None,169.31705270009115,None,169.31705270009115,None,169.31705270009115,None,169.31705270009115,None,169.31705270009115,None,,,,,,,,,,,,,frol_pilot,001,2021_Sep_09_1514,shapka,2021.1.4,None,
2,10,abs,right,right.png,right.png,non,Стулья,Брусья,tool5.png,car5.png,tool7.png,music1.png,298,298,-298,-298,-316,316,-316,316,"[200, 0]","[-200, 0]","[81, 81]","[81, 81]","[81, 81]","[81, 81]",6,car8.png,tool6.png,animal4.png,tool1.png,tool2.png,tool9.png,tool10.png,music3.png,298,298,-298,-298,298,298,-298,-298,85,-85,85,-85,-200,200,-200,200,"[81, 81]","[81, 81]","[81, 81]","[81, 81]","[81, 81]","[81, 81]","[81, 81]","[81, 81]",,,,,0,1,1,74,,,,,,,,,,,,,,,,,,,,,,,171.73723700037226,None,171.73723700037226,None,171.73723700037226,None,171.94562700018287,None,172.34810480009764,None,172.34810480009764,None,172.34810480009764,None,172.76233100006357,None,,,,,,,,,,,,,,,,,,,,,173.79874110035598,None,a,1.2577367997728288,173.79874110035598,None,173.79874110035598,None,173.79874110035598,None,173.79874110035598,None,173.79874110035598,None,173.79874110035598,None,173.79874110035598,None,173.79874110035598,None,173.79874110035598,None,173.79874110035598,None,173.79874110035598,None,173.79874110035598,None,173.79874110035598,None,,,,,,,,,,,,,frol_pilot,001,2021_Sep_09_1514,shapka,2021.1.4,None,
2,8,abs,right,right.png,right.png,non,Рубашки,Барашки,tool3.png,car3.png,music4.png,animal2.png,298,298,-298,-298,316,-316,316,-316,"[200, 0]","[-200, 0]","[81, 81]","[81, 81]","[81, 81]","[81, 81]",4,tool6.png,car10.png,tool1.png,tool9.png,None,None,None,None,298,298,-298,-298,298,298,-298,-298,-85,85,-85,85,200,-200,200,-200,"[81, 81]","[81, 81]","[81, 81]","[81, 81]","[81, 81]","[81, 81]","[81, 81]","[81, 81]",,,,,0,2,2,58,,,,,,,,,,,,,,,,,,,,,,,175.12163020018488,None,175.12163020018488,None,175.12163020018488,None,175.32914050016552,None,175.73395930044353,None,175.73395930044353,None,175.73395930044353,None,176.145813500043,None,,,,,,,,,,,,,,,,,,,,,177.1740548000671,None,p,1.2982335998676717,177.1740548000671,None,177.1740548000671,None,177.1740548000671,None,177.1740548000671,None,177.1740548000671,None,177.1740548000671,None,177.1740548000671,None,177.1740548000671,None,177.1740548000671,None,177.1740548000671,None,177.1740548000671,None,177.1740548000671,None,177.1740548000671,None,,,,,,,,,,,,,frol_pilot,001,2021_Sep_09_1514,shapka,2021.1.4,None,
1,9,pre,left,left.png,left.png,bas,Яблоки,Пряники,fruit4.png,car10.png,tool1.png,car4.png,-298,-298,298,298,200,-200,200,-200,"[-200, 0]","[200, 0]","[81, 81]","[81, 81]","[81, 81]","[81, 81]",6,tool2.png,animal8.png,tool3.png,animal7.png,animal5.png,music9.png,car6.png,car1.png,-298,-298,298,298,-298,-298,298,298,85,-85,85,-85,-316,316,-316,316,"[81, 81]","[81, 81]","[81, 81]","[81, 81]","[81, 81]","[81, 81]","[81, 81]","[81, 81]",,,,,0,3,3,219,,,,,,,,,,,,,,,,,,,,,,,178.51737440004945,None,178.51737440004945,None,178.51737440004945,None,178.7293033003807,None,179.13497050013393,None,179.13497050013393,None,179.13497050013393,None,179.54588320013136,None,,,,,,,,,,,,,,,,,,,,,180.5852240002714,None,a,1.0393721000291407,180.5852240002714,None,180.5852240002714,None,180.5852240002714,None,180.5852240002714,None,180.5852240002714,None,180.5852240002714,None,180.5852240002714,None,180.5852240002714,None,180.5852240002714,None,180.5852240002714,None,180.5852240002714,None,180.5852240002714,None,180.5852240002714,None,,,,,,,,,,,,,frol_pilot,001,2021_Sep_09_1514,shapka,2021.1.4,None,
2,5,pre,right,right.png,right.png,bas,Чашки,Шашки,tableware2.png,tool2.png,music7.png,tool1.png,298,298,-298,-298,-316,316,-316,316,"[200, 0]","[-200, 0]","[81, 81]","[81, 81]","[81, 81]","[81, 81]",2,None,None,None,None,None,None,None,None,298,298,-298,-298,298,298,-298,-298,-85,85,-85,85,-200,200,-200,200,"[81, 81]","[81, 81]","[81, 81]","[81, 81]","[81, 81]","[81, 81]","[81, 81]","[81, 81]",,,,,0,4,4,286,,,,,,,,,,,,,,,,,,,,,,,181.67011430021375,None,181.67011430021375,None,181.67011430021375,None,181.87947360007092,None,182.28569830022752,None,182.28569830022752,None,182.28569830022752,None,182.69611980021,None,,,,,,,,,,,,,,,,,,,,,183.71229240018874,None,p,0.7280077002942562,183.71229240018874,None,183.71229240018874,None,183.71229240018874,None,183.71229240018874,None,183.71229240018874,None,183.71229240018874,None,183.71229240018874,None,183.71229240018874,None,183.71229240018874,None,183.71229240018874,None,183.71229240018874,None,183.71229240018874,None,183.71229240018874,None,,,,,,,,,,,,,frol_pilot,001,2021_Sep_09_1514,shapka,2021.1.4,None,
2,5,pre,right,right.png,right.png,bas,Рубашки,Барашки,clothes5.png,car1.png,music9.png,car3.png,298,298,-298,-298,316,-316,316,-316,"[200, 0]","[-200, 0]","[81, 81]","[81, 81]","[81, 81]","[81, 81]",2,None,None,None,None,None,None,None,None,298,298,-298,-298,298,298,-298,-298,-85,85,-85,85,-200,200,-200,200,"[81, 81]","[81, 81]","[81, 81]","[81, 81]","[81, 81]","[81, 81]","[81, 81]","[81, 81]",,,,,0,5,5,223,,,,,,,,,,,,,,,,,,,,,,,184.48649860033765,None,184.48649860033765,None,184.48649860033765,None,184.69619340030476,None,185.10105130029842,None,185.10105130029842,None,185.10105130029842,None,185.51285170018673,None,,,,,,,,,,,,,,,,,,,,,186.52912000007927,None,p,0.9434257000684738,186.52912000007927,None,186.52912000007927,None,186.52912000007927,None,186.52912000007927,None,186.52912000007927,None,186.52912000007927,None,186.52912000007927,None,186.52912000007927,None,186.52912000007927,None,186.52912000007927,None,186.52912000007927,None,186.52912000007927,None,186.52912000007927,None,,,,,,,,,,,,,frol_pilot,001,2021_Sep_09_1514,shapka,2021.1.4,None,
2,8,abs,right,right.png,right.png,non,Яблоки,Пряники,music5.png,music1.png,music7.png,music3.png,298,298,-298,-298,-316,316,-316,316,"[200, 0]","[-200, 0]","[81, 81]","[81, 81]","[81, 81]","[81, 81]",4,music5.png,tool9.png,tool1.png,car10.png,None,None,None,None,298,298,-298,-298,298,298,-298,-298,85,-85,85,-85,200,-200,200,-200,"[81, 81]","[81, 81]","[81, 81]","[81, 81]","[81, 81]","[81, 81]","[81, 81]","[81, 81]",,,,,0,6,6,94,,,,,,,,,,,,,,,,,,,,,,,187.51978450035676,None,187.51978450035676,None,187.51978450035676,None,187.72970410017297,None,188.13555000023916,None,188.13555000023916,None,188.13555000023916,None,188.5462994002737,None,,,,,,,,,,,,,,,,,,,,,189.57734230021015,None,a,1.038880500011146,189.57734230021015,None,189.57734230021015,None,189.57734230021015,None,189.57734230021015,None,189.57734230021015,None,189.57734230021015,None,189.57734230021015,None,189.57734230021015,None,189.57734230021015,None,189.57734230021015,None,189.57734230021015,None,189.57734230021015,None,189.57734230021015,None,,,,,,,,,,,,,frol_pilot,001,2021_Sep_09_1514,shapka,2021.1.4,None,
1,7,pre,left,left.png,left.png,bas,Стулья,Брусья,furniture3.png,tool2.png,music6.png,car9.png,-298,-298,298,298,85,-85,85,-85,"[-200, 0]","[200, 0]","[81, 81]","[81, 81]","[81, 81]","[81, 81]",4,car1.png,car10.png,animal5.png,tool7.png,None,None,None,None,-298,-298,298,298,-298,-298,298,298,316,-316,316,-316,200,-200,200,-200,"[81, 81]","[81, 81]","[81, 81]","[81, 81]","[81, 81]","[81, 81]","[81, 81]","[81, 81]",,,,,0,7,7,144,,,,,,,,,,,,,,,,,,,,,,,190.6695807003416,None,190.6695807003416,None,190.6695807003416,None,190.87982860021293,None,191.28464310010895,None,191.28464310010895,None,191.28464310010895,None,191.69652730040252,None,,,,,,,,,,,,,,,,,,,,,192.72298120008782,None,p,0.44549060007557273,192.72298120008782,None,192.72298120008782,None,192.72298120008782,None,192.72298120008782,None,192.72298120008782,None,192.72298120008782,None,192.72298120008782,None,192.72298120008782,None,192.72298120008782,None,192.72298120008782,None,192.72298120008782,None,192.72298120008782,None,192.72298120008782,None,,,,,,,,,,,,,frol_pilot,001,2021_Sep_09_1514,shapka,2021.1.4,None,
2,8,abs,right,right.png,right.png,non,Стулья,Брусья,tool9.png,car1.png,animal1.png,tool8.png,298,298,-298,-298,316,-316,316,-316,"[200, 0]","[-200, 0]","[81, 81]","[81, 81]","[81, 81]","[81, 81]",4,tool4.png,music3.png,car10.png,animal2.png,None,None,None,None,298,298,-298,-298,298,298,-298,-298,-85,85,-85,85,200,-200,200,-200,"[81, 81]","[81, 81]","[81, 81]","[81, 81]","[81, 81]","[81, 81]","[81, 81]","[81, 81]",,,,,0,8,8,68,,,,,,,,,,,,,,,,,,,,,,,193.21949430042878,None,193.21949430042878,None,193.21949430042878,None,193.42982650035992,None,193.83267610007897,None,193.83267610007897,None,193.83267610007897,None,194.24656280037016,None,,,,,,,,,,,,,,,,,,,,,195.2806040002033,None,a,0.9518539998680353,195.2806040002033,None,195.2806040002033,None,195.2806040002033,None,195.2806040002033,None,195.2806040002033,None,195.2806040002033,None,195.2806040002033,None,195.2806040002033,None,195.2806040002033,None,195.2806040002033,None,195.2806040002033,None,195.2806040002033,None,195.2806040002033,None,,,,,,,,,,,,,frol_pilot,001,2021_Sep_09_1514,shapka,2021.1.4,None,
2,9,pre,right,right.png,right.png,bas,Рубашки,Барашки,clothes5.png,car7.png,animal5.png,animal1.png,298,298,-298,-298,85,-85,85,-85,"[200, 0]","[-200, 0]","[81, 81]","[81, 81]","[81, 81]","[81, 81]",6,tool4.png,tool10.png,music8.png,tool3.png,car1.png,tool9.png,music2.png,music6.png,298,298,-298,-298,298,298,-298,-298,316,-316,316,-316,200,-200,200,-200,"[81, 81]","[81, 81]","[81, 81]","[81, 81]","[81, 81]","[81, 81]","[81, 81]","[81, 81]",,,,,0,9,9,245,,,,,,,,,,,,,,,,,,,,,,,196.28744050022215,None,196.28744050022215,None,196.28744050022215,None,196.49675630033016,None,196.90161720011383,None,196.90161720011383,None,196.90161720011383,None,197.31335760001093,None,,,,,,,,,,,,,,,,,,,,,198.35144870029762,None,p,0.8250931999646127,198.35144870029762,None,198.35144870029762,None,198.35144870029762,None,198.35144870029762,None,198.35144870029762,None,198.35144870029762,None,198.35144870029762,None,198.35144870029762,None,198.35144870029762,None,198.35144870029762,None,198.35144870029762,None,198.35144870029762,None,198.35144870029762,None,,,,,,,,,,,,,frol_pilot,001,2021_Sep_09_1514,shapka,2021.1.4,None,
2,7,pre,right,right.png,right.png,bas,Яблоки,Пряники,fruit4.png,animal7.png,music10.png,tool5.png,298,298,-298,-298,85,-85,85,-85,"[200, 0]","[-200, 0]","[81, 81]","[81, 81]","[81, 81]","[81, 81]",4,tool8.png,car9.png,tool6.png,car3.png,None,None,None,None,298,298,-298,-298,298,298,-298,-298,-316,316,-316,316,200,-200,200,-200,"[81, 81]","[81, 81]","[81, 81]","[81, 81]","[81, 81]","[81, 81]","[81, 81]","[81, 81]",,,,,0,10,10,324,,,,,,,,,,,,,,,,,,,,,,,199.22105930000544,None,199.22105930000544,None,199.22105930000544,None,199.43009540019557,None,199.8361903000623,None,199.8361903000623,None,199.8361903000623,None,200.24677590001374,None,,,,,,,,,,,,,,,,,,,,,201.27700480027124,None,p,1.155303199775517,201.27700480027124,None,201.27700480027124,None,201.27700480027124,None,201.27700480027124,None,201.27700480027124,None,201.27700480027124,None,201.27700480027124,None,201.27700480027124,None,201.27700480027124,None,201.27700480027124,None,201.27700480027124,None,201.27700480027124,None,201.27700480027124,None,,,,,,,,,,,,,frol_pilot,001,2021_Sep_09_1514,shapka,2021.1.4,None,
2,9,pre,right,right.png,right.png,bas,Чашки,Шашки,tableware2.png,music9.png,animal6.png,car10.png,298,298,-298,-298,-200,200,-200,200,"[200, 0]","[-200, 0]","[81, 81]","[81, 81]","[81, 81]","[81, 81]",6,tool4.png,music2.png,music8.png,music7.png,animal1.png,animal3.png,music1.png,car5.png,298,298,-298,-298,298,298,-298,-298,-85,85,-85,85,316,-316,316,-316,"[81, 81]","[81, 81]","[81, 81]","[81, 81]","[81, 81]","[81, 81]","[81, 81]","[81, 81]",,,,,0,11,11,308,,,,,,,,,,,,,,,,,,,,,,,202.48752040043473,None,202.48752040043473,None,202.48752040043473,None,202.6969250002876,None,203.10196270002052,None,203.10196270002052,None,203.10196270002052,None,203.51363430032507,None,,,,,,,,,,,,,,,,,,,,,204.55203310027719,None,p,0.6001718998886645,204.55203310027719,None,204.55203310027719,None,204.55203310027719,None,204.55203310027719,None,204.55203310027719,None,204.55203310027719,None,204.55203310027719,None,204.55203310027719,None,204.55203310027719,None,204.55203310027719,None,204.55203310027719,None,204.55203310027719,None,204.55203310027719,None,,,,,,,,,,,,,frol_pilot,001,2021_Sep_09_1514,shapka,2021.1.4,None,
2,5,pre,right,right.png,right.png,bas,Яблоки,Пряники,fruit5.png,music2.png,car3.png,music6.png,298,298,-298,-298,316,-316,316,-316,"[200, 0]","[-200, 0]","[81, 81]","[81, 81]","[81, 81]","[81, 81]",2,None,None,None,None,None,None,None,None,298,298,-298,-298,298,298,-298,-298,85,-85,85,-85,200,-200,200,-200,"[81, 81]","[81, 81]","[81, 81]","[81, 81]","[81, 81]","[81, 81]","[81, 81]","[81, 81]",,,,,0,12,12,320,,,,,,,,,,,,,,,,,,,,,,,205.2050252002664,None,205.2050252002664,None,205.2050252002664,None,205.41373040014878,None,205.81864740001038,None,205.81864740001038,None,205.81864740001038,None,206.23041010042652,None,,,,,,,,,,,,,,,,,,,,,207.25187020003796,None,p,0.4284021998755634,207.25187020003796,None,207.25187020003796,None,207.25187020003796,None,207.25187020003796,None,207.25187020003796,None,207.25187020003796,None,207.25187020003796,None,207.25187020003796,None,207.25187020003796,None,207.25187020003796,None,207.25187020003796,None,207.25187020003796,None,207.25187020003796,None,,,,,,,,,,,,,frol_pilot,001,2021_Sep_09_1514,shapka,2021.1.4,None,
2,8,abs,right,right.png,right.png,non,Стулья,Брусья,animal3.png,animal7.png,animal6.png,music9.png,298,298,-298,-298,-316,316,-316,316,"[200, 0]","[-200, 0]","[81, 81]","[81, 81]","[81, 81]","[81, 81]",4,music1.png,animal10.png,music2.png,music3.png,None,None,None,None,298,298,-298,-298,298,298,-298,-298,85,-85,85,-85,200,-200,200,-200,"[81, 81]","[81, 81]","[81, 81]","[81, 81]","[81, 81]","[81, 81]","[81, 81]","[81, 81]",,,,,0,13,13,71,,,,,,,,,,,,,,,,,,,,,,,207.73542210040614,None,207.73542210040614,None,207.73542210040614,None,207.94726929999888,None,208.35215950012207,None,208.35215950012207,None,208.35215950012207,None,208.76395920012146,None,,,,,,,,,,,,,,,,,,,,,209.79114540014416,None,a,0.6492832000367343,209.79114540014416,None,209.79114540014416,None,209.79114540014416,None,209.79114540014416,None,209.79114540014416,None,209.79114540014416,None,209.79114540014416,None,209.79114540014416,None,209.79114540014416,None,209.79114540014416,None,209.79114540014416,None,209.79114540014416,None,209.79114540014416,None,,,,,,,,,,,,,frol_pilot,001,2021_Sep_09_1514,shapka,2021.1.4,None,
2,5,pre,right,right.png,right.png,bas,Чашки,Шашки,tableware5.png,tool10.png,car4.png,car7.png,298,298,-298,-298,316,-316,316,-316,"[200, 0]","[-200, 0]","[81, 81]","[81, 81]","[81, 81]","[81, 81]",2,None,None,None,None,None,None,None,None,298,298,-298,-298,298,298,-298,-298,-85,85,-85,85,-200,200,-200,200,"[81, 81]","[81, 81]","[81, 81]","[81, 81]","[81, 81]","[81, 81]","[81, 81]","[81, 81]",,,,,0,14,14,284,,,,,,,,,,,,,,,,,,,,,,,210.48737430013716,None,210.48737430013716,None,210.48737430013716,None,210.6969020003453,None,211.10660940036178,None,211.10660940036178,None,211.10660940036178,None,211.51399690005928,None,,,,,,,,,,,,,,,,,,,,,212.53096910007298,None,p,0.5014122002758086,212.53096910007298,None,212.53096910007298,None,212.53096910007298,None,212.53096910007298,None,212.53096910007298,None,212.53096910007298,None,212.53096910007298,None,212.53096910007298,None,212.53096910007298,None,212.53096910007298,None,212.53096910007298,None,212.53096910007298,None,212.53096910007298,None,,,,,,,,,,,,,frol_pilot,001,2021_Sep_09_1514,shapka,2021.1.4,None,
1,5,pre,left,left.png,left.png,bas,Яблоки,Пряники,fruit3.png,tool6.png,animal7.png,tool9.png,-298,-298,298,298,316,-316,316,-316,"[-200, 0]","[200, 0]","[81, 81]","[81, 81]","[81, 81]","[81, 81]",2,None,None,None,None,None,None,None,None,-298,-298,298,298,-298,-298,298,298,85,-85,85,-85,200,-200,200,-200,"[81, 81]","[81, 81]","[81, 81]","[81, 81]","[81, 81]","[81, 81]","[81, 81]","[81, 81]",,,,,0,15,15,201,,,,,,,,,,,,,,,,,,,,,,,213.10225770017132,None,213.10225770017132,None,213.10225770017132,None,213.31407170044258,None,213.7189738000743,None,213.7189738000743,None,213.7189738000743,None,214.13087610015646,None,,,,,,,,,,,,,,,,,,,,,215.1489682001993,None,p,0.9074426000006497,215.1489682001993,None,215.1489682001993,None,215.1489682001993,None,215.1489682001993,None,215.1489682001993,None,215.1489682001993,None,215.1489682001993,None,215.1489682001993,None,215.1489682001993,None,215.1489682001993,None,215.1489682001993,None,215.1489682001993,None,215.1489682001993,None,,,,,,,,,,,,,frol_pilot,001,2021_Sep_09_1514,shapka,2021.1.4,None,
2,7,pre,right,right.png,right.png,bas,Чашки,Шашки,tableware5.png,music9.png,car5.png,music2.png,298,298,-298,-298,85,-85,85,-85,"[200, 0]","[-200, 0]","[81, 81]","[81, 81]","[81, 81]","[81, 81]",4,music7.png,car6.png,animal4.png,car3.png,None,None,None,None,298,298,-298,-298,298,298,-298,-298,-316,316,-316,316,200,-200,200,-200,"[81, 81]","[81, 81]","[81, 81]","[81, 81]","[81, 81]","[81, 81]","[81, 81]","[81, 81]",,,,,0,16,16,297,,,,,,,,,,,,,,,,,,,,,,,216.12699890043586,None,216.12699890043586,None,216.12699890043586,None,216.33088720031083,None,216.74540910031646,None,216.74540910031646,None,216.74540910031646,None,217.14759090030566,None,,,,,,,,,,,,,,,,,,,,,218.1720492001623,None,p,0.8442414002493024,218.1720492001623,None,218.1720492001623,None,218.1720492001623,None,218.1720492001623,None,218.1720492001623,None,218.1720492001623,None,218.1720492001623,None,218.1720492001623,None,218.1720492001623,None,218.1720492001623,None,218.1720492001623,None,218.1720492001623,None,218.1720492001623,None,,,,,,,,,,,,,frol_pilot,001,2021_Sep_09_1514,shapka,2021.1.4,None,
1,9,pre,left,left.png,left.png,bas,Рубашки,Барашки,clothes4.png,music3.png,car2.png,music4.png,-298,-298,298,298,-85,85,-85,85,"[-200, 0]","[200, 0]","[81, 81]","[81, 81]","[81, 81]","[81, 81]",6,music5.png,car6.png,tool8.png,animal9.png,tool10.png,car7.png,animal1.png,tool1.png,-298,-298,298,298,-298,-298,298,298,316,-316,316,-316,-200,200,-200,200,"[81, 81]","[81, 81]","[81, 81]","[81, 81]","[81, 81]","[81, 81]","[81, 81]","[81, 81]",,,,,0,17,17,130,,,,,,,,,,,,,,,,,,,,,,,219.0693018003367,None,219.0693018003367,None,219.0693018003367,None,219.2811518004164,None,219.68594670016319,None,219.68594670016319,None,219.68594670016319,None,220.09779920009896,None,,,,,,,,,,,,,,,,,,,,,221.13608640013263,None,p,0.5684111001901329,221.13608640013263,None,221.13608640013263,None,221.13608640013263,None,221.13608640013263,None,221.13608640013263,None,221.13608640013263,None,221.13608640013263,None,221.13608640013263,None,221.13608640013263,None,221.13608640013263,None,221.13608640013263,None,221.13608640013263,None,221.13608640013263,None,,,,,,,,,,,,,frol_pilot,001,2021_Sep_09_1514,shapka,2021.1.4,None,
1,9,pre,left,left.png,left.png,bas,Стулья,Брусья,furniture1.png,car7.png,car4.png,animal1.png,-298,-298,298,298,85,-85,85,-85,"[-200, 0]","[200, 0]","[81, 81]","[81, 81]","[81, 81]","[81, 81]",6,music5.png,car9.png,tool6.png,animal10.png,tool8.png,car1.png,music2.png,tool3.png,-298,-298,298,298,-298,-298,298,298,-316,316,-316,316,-200,200,-200,200,"[81, 81]","[81, 81]","[81, 81]","[81, 81]","[81, 81]","[81, 81]","[81, 81]","[81, 81]",,,,,0,18,18,154,,,,,,,,,,,,,,,,,,,,,,,221.75284600025043,None,221.75284600025043,None,221.75284600025043,None,221.96459940029308,None,222.3684294000268,None,222.3684294000268,None,222.3684294000268,None,222.78119300026447,None,,,,,,,,,,,,,,,,,,,,,223.82074760040268,None,p,0.49981460021808743,223.82074760040268,None,223.82074760040268,None,223.82074760040268,None,223.82074760040268,None,223.82074760040268,None,223.82074760040268,None,223.82074760040268,None,223.82074760040268,None,223.82074760040268,None,223.82074760040268,None,223.82074760040268,None,223.82074760040268,None,223.82074760040268,None,,,,,,,,,,,,,frol_pilot,001,2021_Sep_09_1514,shapka,2021.1.4,None,
2,5,pre,right,right.png,right.png,bas,Рубашки,Барашки,clothes4.png,car7.png,animal9.png,music4.png,298,298,-298,-298,-316,316,-316,316,"[200, 0]","[-200, 0]","[81, 81]","[81, 81]","[81, 81]","[81, 81]",2,None,None,None,None,None,None,None,None,298,298,-298,-298,298,298,-298,-298,-85,85,-85,85,-200,200,-200,200,"[81, 81]","[81, 81]","[81, 81]","[81, 81]","[81, 81]","[81, 81]","[81, 81]","[81, 81]",,,,,0,19,19,228,,,,,,,,,,,,,,,,,,,,,,,224.37203470012173,None,224.37203470012173,None,224.37203470012173,None,224.581258200109,None,224.98620160017163,None,224.98620160017163,None,224.98620160017163,None,225.39785110019147,None,,,,,,,,,,,,,,,,,,,,,226.41359040001407,None,p,0.6428809999488294,226.41359040001407,None,226.41359040001407,None,226.41359040001407,None,226.41359040001407,None,226.41359040001407,None,226.41359040001407,None,226.41359040001407,None,226.41359040001407,None,226.41359040001407,None,226.41359040001407,None,226.41359040001407,None,226.41359040001407,None,226.41359040001407,None,,,,,,,,,,,,,frol_pilot,001,2021_Sep_09_1514,shapka,2021.1.4,None,
2,9,pre,right,right.png,right.png,bas,Яблоки,Пряники,fruit3.png,animal6.png,animal5.png,tool4.png,298,298,-298,-298,200,-200,200,-200,"[200, 0]","[-200, 0]","[81, 81]","[81, 81]","[81, 81]","[81, 81]",6,tool3.png,tool9.png,tool1.png,animal2.png,car8.png,car1.png,tool7.png,tool10.png,298,298,-298,-298,298,298,-298,-298,85,-85,85,-85,316,-316,316,-316,"[81, 81]","[81, 81]","[81, 81]","[81, 81]","[81, 81]","[81, 81]","[81, 81]","[81, 81]",,,,,0,20,20,342,,,,,,,,,,,,,,,,,,,,,,,227.10512620024383,None,227.10512620024383,None,227.10512620024383,None,227.3148219003342,None,227.7206434002146,None,227.7206434002146,None,227.7206434002146,None,228.13143490022048,None,,,,,,,,,,,,,,,,,,,,,229.167610200122,None,p,0.5128994002006948,229.167610200122,None,229.167610200122,None,229.167610200122,None,229.167610200122,None,229.167610200122,None,229.167610200122,None,229.167610200122,None,229.167610200122,None,229.167610200122,None,229.167610200122,None,229.167610200122,None,229.167610200122,None,229.167610200122,None,,,,,,,,,,,,,frol_pilot,001,2021_Sep_09_1514,shapka,2021.1.4,None,
1,5,pre,left,left.png,left.png,bas,Чашки,Шашки,tableware5.png,tool9.png,car7.png,car5.png,-298,-298,298,298,-316,316,-316,316,"[-200, 0]","[200, 0]","[81, 81]","[81, 81]","[81, 81]","[81, 81]",2,None,None,None,None,None,None,None,None,-298,-298,298,298,-298,-298,298,298,-85,85,-85,85,-200,200,-200,200,"[81, 81]","[81, 81]","[81, 81]","[81, 81]","[81, 81]","[81, 81]","[81, 81]","[81, 81]",,,,,0,21,21,170,,,,,,,,,,,,,,,,,,,,,,,229.7207087003626,None,229.7207087003626,None,229.7207087003626,None,229.93165120016783,None,230.33643860043958,None,230.33643860043958,None,230.33643860043958,None,230.74821730004624,None,,,,,,,,,,,,,,,,,,,,,231.7732638004236,None,p,0.5392188997939229,231.7732638004236,None,231.7732638004236,None,231.7732638004236,None,231.7732638004236,None,231.7732638004236,None,231.7732638004236,None,231.7732638004236,None,231.7732638004236,None,231.7732638004236,None,231.7732638004236,None,231.7732638004236,None,231.7732638004236,None,231.7732638004236,None,,,,,,,,,,,,,frol_pilot,001,2021_Sep_09_1514,shapka,2021.1.4,None,
1,8,abs,left,left.png,left.png,non,Чашки,Шашки,car10.png,music7.png,animal5.png,car2.png,-298,-298,298,298,-316,316,-316,316,"[-200, 0]","[200, 0]","[81, 81]","[81, 81]","[81, 81]","[81, 81]",4,music9.png,car4.png,music10.png,car8.png,None,None,None,None,-298,-298,298,298,-298,-298,298,298,85,-85,85,-85,200,-200,200,-200,"[81, 81]","[81, 81]","[81, 81]","[81, 81]","[81, 81]","[81, 81]","[81, 81]","[81, 81]",,,,,0,22,22,33,,,,,,,,,,,,,,,,,,,,,,,232.35456990031525,None,232.35456990031525,None,232.35456990031525,None,232.56503090029582,None,232.96723380032927,None,232.96723380032927,None,232.96723380032927,None,233.3817551000975,None,,,,,,,,,,,,,,,,,,,,,234.40427040029317,None,a,1.1722010001540184,234.40427040029317,None,234.40427040029317,None,234.40427040029317,None,234.40427040029317,None,234.40427040029317,None,234.40427040029317,None,234.40427040029317,None,234.40427040029317,None,234.40427040029317,None,234.40427040029317,None,234.40427040029317,None,234.40427040029317,None,234.40427040029317,None,,,,,,,,,,,,,frol_pilot,001,2021_Sep_09_1514,shapka,2021.1.4,None,
1,5,pre,left,left.png,left.png,bas,Чашки,Шашки,tableware2.png,animal10.png,car1.png,animal7.png,-298,-298,298,298,-316,316,-316,316,"[-200, 0]","[200, 0]","[81, 81]","[81, 81]","[81, 81]","[81, 81]",2,None,None,None,None,None,None,None,None,-298,-298,298,298,-298,-298,298,298,-85,85,-85,85,-200,200,-200,200,"[81, 81]","[81, 81]","[81, 81]","[81, 81]","[81, 81]","[81, 81]","[81, 81]","[81, 81]",,,,,0,23,23,166,,,,,,,,,,,,,,,,,,,,,,,235.61989450035617,None,235.61989450035617,None,235.61989450035617,None,235.83177480008453,None,236.2341978000477,None,236.2341978000477,None,236.2341978000477,None,236.64860930014402,None,,,,,,,,,,,,,,,,,,,,,237.68061890034005,None,p,0.5276119001209736,237.68061890034005,None,237.68061890034005,None,237.68061890034005,None,237.68061890034005,None,237.68061890034005,None,237.68061890034005,None,237.68061890034005,None,237.68061890034005,None,237.68061890034005,None,237.68061890034005,None,237.68061890034005,None,237.68061890034005,None,237.68061890034005,None,,,,,,,,,,,,,frol_pilot,001,2021_Sep_09_1514,shapka,2021.1.4,None,
2,10,abs,right,right.png,right.png,non,Яблоки,Пряники,car1.png,tool9.png,music7.png,music3.png,298,298,-298,-298,-316,316,-316,316,"[200, 0]","[-200, 0]","[81, 81]","[81, 81]","[81, 81]","[81, 81]",6,tool6.png,animal8.png,animal2.png,car10.png,tool1.png,music4.png,music1.png,car5.png,298,298,-298,-298,298,298,-298,-298,-85,85,-85,85,-200,200,-200,200,"[81, 81]","[81, 81]","[81, 81]","[81, 81]","[81, 81]","[81, 81]","[81, 81]","[81, 81]",,,,,0,24,24,98,,,,,,,,,,,,,,,,,,,,,,,238.2590400003828,None,238.2590400003828,None,238.2590400003828,None,238.46504650032148,None,238.8709715004079,None,238.8709715004079,None,238.8709715004079,None,239.2819483000785,None,,,,,,,,,,,,,,,,,,,,,240.3193100001663,None,a,0.9451728998683393,240.3193100001663,None,240.3193100001663,None,240.3193100001663,None,240.3193100001663,None,240.3193100001663,None,240.3193100001663,None,240.3193100001663,None,240.3193100001663,None,240.3193100001663,None,240.3193100001663,None,240.3193100001663,None,240.3193100001663,None,240.3193100001663,None,,,,,,,,,,,,,frol_pilot,001,2021_Sep_09_1514,shapka,2021.1.4,None,
2,5,pre,right,right.png,right.png,bas,Стулья,Брусья,furniture4.png,animal1.png,car4.png,car5.png,298,298,-298,-298,316,-316,316,-316,"[200, 0]","[-200, 0]","[81, 81]","[81, 81]","[81, 81]","[81, 81]",2,None,None,None,None,None,None,None,None,298,298,-298,-298,298,298,-298,-298,85,-85,85,-85,200,-200,200,-200,"[81, 81]","[81, 81]","[81, 81]","[81, 81]","[81, 81]","[81, 81]","[81, 81]","[81, 81]",,,,,0,25,25,255,,,,,,,,,,,,,,,,,,,,,,,241.3056083000265,None,241.3056083000265,None,241.3056083000265,None,241.5154823004268,None,241.92030130000785,None,241.92030130000785,None,241.92030130000785,None,242.33177430042997,None,,,,,,,,,,,,,,,,,,,,,243.35128340031952,None,p,0.4809181001037359,243.35128340031952,None,243.35128340031952,None,243.35128340031952,None,243.35128340031952,None,243.35128340031952,None,243.35128340031952,None,243.35128340031952,None,243.35128340031952,None,243.35128340031952,None,243.35128340031952,None,243.35128340031952,None,243.35128340031952,None,243.35128340031952,None,,,,,,,,,,,,,frol_pilot,001,2021_Sep_09_1514,shapka,2021.1.4,None,
2,6,abs,right,right.png,right.png,non,Рубашки,Барашки,tool5.png,tool1.png,animal4.png,car1.png,298,298,-298,-298,-316,316,-316,316,"[200, 0]","[-200, 0]","[81, 81]","[81, 81]","[81, 81]","[81, 81]",2,None,None,None,None,None,None,None,None,298,298,-298,-298,298,298,-298,-298,-85,85,-85,85,-200,200,-200,200,"[81, 81]","[81, 81]","[81, 81]","[81, 81]","[81, 81]","[81, 81]","[81, 81]","[81, 81]",,,,,0,26,26,52,,,,,,,,,,,,,,,,,,,,,,,243.87638740008697,None,243.87638740008697,None,243.87638740008697,None,244.08225780026987,None,244.4870961001143,None,244.4870961001143,None,244.4870961001143,None,244.8988600000739,None,,,,,,,,,,,,,,,,,,,,,245.9190425002016,None,a,3.449466099962592,245.9190425002016,None,245.9190425002016,None,245.9190425002016,None,245.9190425002016,None,245.9190425002016,None,245.9190425002016,None,245.9190425002016,None,245.9190425002016,None,245.9190425002016,None,245.9190425002016,None,245.9190425002016,None,245.9190425002016,None,245.9190425002016,None,,,,,,,,,,,,,frol_pilot,001,2021_Sep_09_1514,shapka,2021.1.4,None,
1,10,abs,left,left.png,left.png,non,Яблоки,Пряники,car1.png,music3.png,car2.png,music8.png,-298,-298,298,298,-316,316,-316,316,"[-200, 0]","[200, 0]","[81, 81]","[81, 81]","[81, 81]","[81, 81]",6,animal9.png,tool1.png,music4.png,music7.png,car1.png,tool6.png,car5.png,tool10.png,-298,-298,298,298,-298,-298,298,298,85,-85,85,-85,200,-200,200,-200,"[81, 81]","[81, 81]","[81, 81]","[81, 81]","[81, 81]","[81, 81]","[81, 81]","[81, 81]",,,,,0,27,27,49,,,,,,,,,,,,,,,,,,,,,,,249.43102610018104,None,249.43102610018104,None,249.43102610018104,None,249.63240280002356,None,250.03868380002677,None,250.03868380002677,None,250.03868380002677,None,250.44922100007534,None,,,,,,,,,,,,,,,,,,,,,251.50175540009513,None,a,0.7947770999744534,251.50175540009513,None,251.50175540009513,None,251.50175540009513,None,251.50175540009513,None,251.50175540009513,None,251.50175540009513,None,251.50175540009513,None,251.50175540009513,None,251.50175540009513,None,251.50175540009513,None,251.50175540009513,None,251.50175540009513,None,251.50175540009513,None,,,,,,,,,,,,,frol_pilot,001,2021_Sep_09_1514,shapka,2021.1.4,None,
2,8,abs,right,right.png,right.png,non,Стулья,Брусья,tool2.png,music7.png,car8.png,music4.png,298,298,-298,-298,316,-316,316,-316,"[200, 0]","[-200, 0]","[81, 81]","[81, 81]","[81, 81]","[81, 81]",4,tool5.png,animal3.png,music6.png,car1.png,None,None,None,None,298,298,-298,-298,298,298,-298,-298,-85,85,-85,85,200,-200,200,-200,"[81, 81]","[81, 81]","[81, 81]","[81, 81]","[81, 81]","[81, 81]","[81, 81]","[81, 81]",,,,,0,28,28,70,,,,,,,,,,,,,,,,,,,,,,,252.3394058002159,None,252.3394058002159,None,252.3394058002159,None,252.54920800030231,None,252.954499500338,None,252.954499500338,None,252.954499500338,None,253.36600980022922,None,,,,,,,,,,,,,,,,,,,,,254.41425900021568,None,a,1.6821971000172198,254.41425900021568,None,254.41425900021568,None,254.41425900021568,None,254.41425900021568,None,254.41425900021568,None,254.41425900021568,None,254.41425900021568,None,254.41425900021568,None,254.41425900021568,None,254.41425900021568,None,254.41425900021568,None,254.41425900021568,None,254.41425900021568,None,,,,,,,,,,,,,frol_pilot,001,2021_Sep_09_1514,shapka,2021.1.4,None,
1,10,abs,left,left.png,left.png,non,Стулья,Брусья,music10.png,car1.png,car7.png,car2.png,-298,-298,298,298,-316,316,-316,316,"[-200, 0]","[200, 0]","[81, 81]","[81, 81]","[81, 81]","[81, 81]",6,car3.png,music9.png,tool8.png,music5.png,animal1.png,car4.png,car6.png,tool10.png,-298,-298,298,298,-298,-298,298,298,85,-85,85,-85,-200,200,-200,200,"[81, 81]","[81, 81]","[81, 81]","[81, 81]","[81, 81]","[81, 81]","[81, 81]","[81, 81]",,,,,0,29,29,24,,,,,,,,,,,,,,,,,,,,,,,256.13748660031706,None,256.13748660031706,None,256.13748660031706,None,256.349496900104,None,256.7519289003685,None,256.7519289003685,None,256.7519289003685,None,257.1662035002373,None,,,,,,,,,,,,,,,,,,,,,258.19356350041926,None,a,1.0467085000127554,258.19356350041926,None,258.19356350041926,None,258.19356350041926,None,258.19356350041926,None,258.19356350041926,None,258.19356350041926,None,258.19356350041926,None,258.19356350041926,None,258.19356350041926,None,258.19356350041926,None,258.19356350041926,None,258.19356350041926,None,258.19356350041926,None,,,,,,,,,,,,,frol_pilot,001,2021_Sep_09_1514,shapka,2021.1.4,None,
2,10,abs,right,right.png,right.png,non,Чашки,Шашки,car9.png,music8.png,music2.png,animal9.png,298,298,-298,-298,316,-316,316,-316,"[200, 0]","[-200, 0]","[81, 81]","[81, 81]","[81, 81]","[81, 81]",6,tool1.png,music3.png,animal7.png,tool10.png,music1.png,tool4.png,music6.png,animal5.png,298,298,-298,-298,298,298,-298,-298,-85,85,-85,85,-200,200,-200,200,"[81, 81]","[81, 81]","[81, 81]","[81, 81]","[81, 81]","[81, 81]","[81, 81]","[81, 81]",,,,,0,30,30,85,,,,,,,,,,,,,,,,,,,,,,,259.2900943001732,None,259.2900943001732,None,259.2900943001732,None,259.4995170002803,None,259.90443890029564,None,259.90443890029564,None,259.90443890029564,None,260.3162332000211,None,,,,,,,,,,,,,,,,,,,,,261.34098460013047,None,p,0.8114783000200987,261.34098460013047,None,261.34098460013047,None,261.34098460013047,None,261.34098460013047,None,261.34098460013047,None,261.34098460013047,None,261.34098460013047,None,261.34098460013047,None,261.34098460013047,None,261.34098460013047,None,261.34098460013047,None,261.34098460013047,None,261.34098460013047,None,,,,,,,,,,,,,frol_pilot,001,2021_Sep_09_1514,shapka,2021.1.4,None,
2,5,pre,right,right.png,right.png,bas,Яблоки,Пряники,fruit5.png,tool8.png,tool9.png,car5.png,298,298,-298,-298,316,-316,316,-316,"[200, 0]","[-200, 0]","[81, 81]","[81, 81]","[81, 81]","[81, 81]",2,None,None,None,None,None,None,None,None,298,298,-298,-298,298,298,-298,-298,85,-85,85,-85,200,-200,200,-200,"[81, 81]","[81, 81]","[81, 81]","[81, 81]","[81, 81]","[81, 81]","[81, 81]","[81, 81]",,,,,0,31,31,315,,,,,,,,,,,,,,,,,,,,,,,262.2057770001702,None,262.2057770001702,None,262.2057770001702,None,262.4164209002629,None,262.82123380014673,None,262.82123380014673,None,262.82123380014673,None,263.23302899999544,None,,,,,,,,,,,,,,,,,,,,,264.24592460040003,None,p,0.5303237996995449,264.24592460040003,None,264.24592460040003,None,264.24592460040003,None,264.24592460040003,None,264.24592460040003,None,264.24592460040003,None,264.24592460040003,None,264.24592460040003,None,264.24592460040003,None,264.24592460040003,None,264.24592460040003,None,264.24592460040003,None,264.24592460040003,None,,,,,,,,,,,,,frol_pilot,001,2021_Sep_09_1514,shapka,2021.1.4,None,
1,8,abs,left,left.png,left.png,non,Стулья,Брусья,animal6.png,tool5.png,music3.png,car1.png,-298,-298,298,298,316,-316,316,-316,"[-200, 0]","[200, 0]","[81, 81]","[81, 81]","[81, 81]","[81, 81]",4,car2.png,car9.png,animal8.png,car6.png,None,None,None,None,-298,-298,298,298,-298,-298,298,298,-85,85,-85,85,200,-200,200,-200,"[81, 81]","[81, 81]","[81, 81]","[81, 81]","[81, 81]","[81, 81]","[81, 81]","[81, 81]",,,,,0,32,32,20,,,,,,,,,,,,,,,,,,,,,,,264.8326763003133,None,264.8326763003133,None,264.8326763003133,None,265.0332464003004,None,265.43802730040625,None,265.43802730040625,None,265.43802730040625,None,265.84977440023795,None,,,,,,,,,,,,,,,,,,,,,266.88248060038313,None,a,1.1178792999126017,266.88248060038313,None,266.88248060038313,None,266.88248060038313,None,266.88248060038313,None,266.88248060038313,None,266.88248060038313,None,266.88248060038313,None,266.88248060038313,None,266.88248060038313,None,266.88248060038313,None,266.88248060038313,None,266.88248060038313,None,266.88248060038313,None,,,,,,,,,,,,,frol_pilot,001,2021_Sep_09_1514,shapka,2021.1.4,None,
1,7,pre,left,left.png,left.png,bas,Рубашки,Барашки,clothes2.png,tool3.png,car4.png,car1.png,-298,-298,298,298,316,-316,316,-316,"[-200, 0]","[200, 0]","[81, 81]","[81, 81]","[81, 81]","[81, 81]",4,tool2.png,car6.png,animal5.png,car7.png,None,None,None,None,-298,-298,298,298,-298,-298,298,298,85,-85,85,-85,200,-200,200,-200,"[81, 81]","[81, 81]","[81, 81]","[81, 81]","[81, 81]","[81, 81]","[81, 81]","[81, 81]",,,,,0,33,33,120,,,,,,,,,,,,,,,,,,,,,,,268.03814920037985,None,268.03814920037985,None,268.03814920037985,None,268.25004090042785,None,268.65486150002107,None,268.65486150002107,None,268.65486150002107,None,269.06638030009344,None,,,,,,,,,,,,,,,,,,,,,270.09651060029864,None,p,1.4160470999777317,270.09651060029864,None,270.09651060029864,None,270.09651060029864,None,270.09651060029864,None,270.09651060029864,None,270.09651060029864,None,270.09651060029864,None,270.09651060029864,None,270.09651060029864,None,270.09651060029864,None,270.09651060029864,None,270.09651060029864,None,270.09651060029864,None,,,,,,,,,,,,,frol_pilot,001,2021_Sep_09_1514,shapka,2021.1.4,None,
1,7,pre,left,left.png,left.png,bas,Чашки,Шашки,tableware3.png,car3.png,animal1.png,animal2.png,-298,-298,298,298,-85,85,-85,85,"[-200, 0]","[200, 0]","[81, 81]","[81, 81]","[81, 81]","[81, 81]",4,car4.png,tool5.png,car7.png,tool10.png,None,None,None,None,-298,-298,298,298,-298,-298,298,298,316,-316,316,-316,200,-200,200,-200,"[81, 81]","[81, 81]","[81, 81]","[81, 81]","[81, 81]","[81, 81]","[81, 81]","[81, 81]",,,,,0,34,34,181,,,,,,,,,,,,,,,,,,,,,,,271.5549439000897,None,271.5549439000897,None,271.5549439000897,None,271.7668616999872,None,272.17167780036107,None,272.17167780036107,None,272.17167780036107,None,272.58344640024006,None,,,,,,,,,,,,,,,,,,,,,273.6138459001668,None,p,0.42663270002231,273.6138459001668,None,273.6138459001668,None,273.6138459001668,None,273.6138459001668,None,273.6138459001668,None,273.6138459001668,None,273.6138459001668,None,273.6138459001668,None,273.6138459001668,None,273.6138459001668,None,273.6138459001668,None,273.6138459001668,None,273.6138459001668,None,,,,,,,,,,,,,frol_pilot,001,2021_Sep_09_1514,shapka,2021.1.4,None,
1,6,abs,left,left.png,left.png,non,Стулья,Брусья,tool1.png,music10.png,car8.png,animal7.png,-298,-298,298,298,-316,316,-316,316,"[-200, 0]","[200, 0]","[81, 81]","[81, 81]","[81, 81]","[81, 81]",2,None,None,None,None,None,None,None,None,-298,-298,298,298,-298,-298,298,298,-85,85,-85,85,-200,200,-200,200,"[81, 81]","[81, 81]","[81, 81]","[81, 81]","[81, 81]","[81, 81]","[81, 81]","[81, 81]",,,,,0,35,35,12,,,,,,,,,,,,,,,,,,,,,,,274.08962220000103,None,274.08962220000103,None,274.08962220000103,None,274.30030380003154,None,274.7051202002913,None,274.7051202002913,None,274.7051202002913,None,275.1168458000757,None,,,,,,,,,,,,,,,,,,,,,276.13816210022196,None,a,0.7742979000322521,276.13816210022196,None,276.13816210022196,None,276.13816210022196,None,276.13816210022196,None,276.13816210022196,None,276.13816210022196,None,276.13816210022196,None,276.13816210022196,None,276.13816210022196,None,276.13816210022196,None,276.13816210022196,None,276.13816210022196,None,276.13816210022196,None,,,,,,,,,,,,,frol_pilot,001,2021_Sep_09_1514,shapka,2021.1.4,None,
2,10,abs,right,right.png,right.png,non,Рубашки,Барашки,car1.png,tool8.png,tool9.png,music2.png,298,298,-298,-298,-316,316,-316,316,"[200, 0]","[-200, 0]","[81, 81]","[81, 81]","[81, 81]","[81, 81]",6,animal6.png,tool4.png,animal5.png,tool7.png,car10.png,animal1.png,music1.png,car3.png,298,298,-298,-298,298,298,-298,-298,85,-85,85,-85,-200,200,-200,200,"[81, 81]","[81, 81]","[81, 81]","[81, 81]","[81, 81]","[81, 81]","[81, 81]","[81, 81]",,,,,0,36,36,61,,,,,,,,,,,,,,,,,,,,,,,276.98082150006667,None,276.98082150006667,None,276.98082150006667,None,277.183660000097,None,277.5885851001367,None,277.5885851001367,None,277.5885851001367,None,278.0004679001868,None,,,,,,,,,,,,,,,,,,,,,279.0368566000834,None,a,0.8514023995958269,279.0368566000834,None,279.0368566000834,None,279.0368566000834,None,279.0368566000834,None,279.0368566000834,None,279.0368566000834,None,279.0368566000834,None,279.0368566000834,None,279.0368566000834,None,279.0368566000834,None,279.0368566000834,None,279.0368566000834,None,279.0368566000834,None,,,,,,,,,,,,,frol_pilot,001,2021_Sep_09_1514,shapka,2021.1.4,None,
2,7,pre,right,right.png,right.png,bas,Рубашки,Барашки,clothes1.png,car8.png,car6.png,tool1.png,298,298,-298,-298,316,-316,316,-316,"[200, 0]","[-200, 0]","[81, 81]","[81, 81]","[81, 81]","[81, 81]",4,music4.png,tool9.png,tool6.png,music8.png,None,None,None,None,298,298,-298,-298,298,298,-298,-298,-85,85,-85,85,200,-200,200,-200,"[81, 81]","[81, 81]","[81, 81]","[81, 81]","[81, 81]","[81, 81]","[81, 81]","[81, 81]",,,,,0,37,37,233,,,,,,,,,,,,,,,,,,,,,,,279.9570572003722,None,279.9570572003722,None,279.9570572003722,None,280.167264000047,None,280.56975230015814,None,280.56975230015814,None,280.56975230015814,None,280.98385110031813,None,,,,,,,,,,,,,,,,,,,,,282.01233710022643,None,p,0.516100499778986,282.01233710022643,None,282.01233710022643,None,282.01233710022643,None,282.01233710022643,None,282.01233710022643,None,282.01233710022643,None,282.01233710022643,None,282.01233710022643,None,282.01233710022643,None,282.01233710022643,None,282.01233710022643,None,282.01233710022643,None,282.01233710022643,None,,,,,,,,,,,,,frol_pilot,001,2021_Sep_09_1514,shapka,2021.1.4,None,
2,10,abs,right,right.png,right.png,non,Стулья,Брусья,car4.png,animal1.png,animal8.png,animal3.png,298,298,-298,-298,-316,316,-316,316,"[200, 0]","[-200, 0]","[81, 81]","[81, 81]","[81, 81]","[81, 81]",6,car4.png,music6.png,music1.png,car5.png,music10.png,car9.png,tool7.png,car2.png,298,298,-298,-298,298,298,-298,-298,85,-85,85,-85,-200,200,-200,200,"[81, 81]","[81, 81]","[81, 81]","[81, 81]","[81, 81]","[81, 81]","[81, 81]","[81, 81]",,,,,0,38,38,72,,,,,,,,,,,,,,,,,,,,,,,282.5758151002228,None,282.5758151002228,None,282.5758151002228,None,282.7839799001813,None,283.1888449001126,None,283.1888449001126,None,283.1888449001126,None,283.6006266004406,None,,,,,,,,,,,,,,,,,,,,,284.6371059003286,None,a,1.0433351998217404,284.6371059003286,None,284.6371059003286,None,284.6371059003286,None,284.6371059003286,None,284.6371059003286,None,284.6371059003286,None,284.6371059003286,None,284.6371059003286,None,284.6371059003286,None,284.6371059003286,None,284.6371059003286,None,284.6371059003286,None,284.6371059003286,None,,,,,,,,,,,,,frol_pilot,001,2021_Sep_09_1514,shapka,2021.1.4,None,
1,7,pre,left,left.png,left.png,bas,Стулья,Брусья,furniture3.png,music8.png,car5.png,tool7.png,-298,-298,298,298,-85,85,-85,85,"[-200, 0]","[200, 0]","[81, 81]","[81, 81]","[81, 81]","[81, 81]",4,animal2.png,animal1.png,car9.png,tool3.png,None,None,None,None,-298,-298,298,298,-298,-298,298,298,316,-316,316,-316,200,-200,200,-200,"[81, 81]","[81, 81]","[81, 81]","[81, 81]","[81, 81]","[81, 81]","[81, 81]","[81, 81]",,,,,0,39,39,150,,,,,,,,,,,,,,,,,,,,,,,285.7380976001732,None,285.7380976001732,None,285.7380976001732,None,285.95089580025524,None,286.35326280025765,None,286.35326280025765,None,286.35326280025765,None,286.76757310004905,None,,,,,,,,,,,,,,,,,,,,,287.793938100338,None,p,0.5825104000978172,287.793938100338,None,287.793938100338,None,287.793938100338,None,287.793938100338,None,287.793938100338,None,287.793938100338,None,287.793938100338,None,287.793938100338,None,287.793938100338,None,287.793938100338,None,287.793938100338,None,287.793938100338,None,287.793938100338,None,,,,,,,,,,,,,frol_pilot,001,2021_Sep_09_1514,shapka,2021.1.4,None,
2,10,abs,right,right.png,right.png,non,Чашки,Шашки,animal10.png,tool8.png,tool4.png,music5.png,298,298,-298,-298,-316,316,-316,316,"[200, 0]","[-200, 0]","[81, 81]","[81, 81]","[81, 81]","[81, 81]",6,tool7.png,tool10.png,animal6.png,music2.png,tool9.png,car3.png,car1.png,animal1.png,298,298,-298,-298,298,298,-298,-298,-85,85,-85,85,-200,200,-200,200,"[81, 81]","[81, 81]","[81, 81]","[81, 81]","[81, 81]","[81, 81]","[81, 81]","[81, 81]",,,,,0,40,40,86,,,,,,,,,,,,,,,,,,,,,,,288.42488320032135,None,288.42488320032135,None,288.42488320032135,None,288.63419690029696,None,289.0391363003291,None,289.0391363003291,None,289.0391363003291,None,289.4509074999951,None,,,,,,,,,,,,,,,,,,,,,290.4818742000498,None,p,0.6146492999978364,290.4818742000498,None,290.4818742000498,None,290.4818742000498,None,290.4818742000498,None,290.4818742000498,None,290.4818742000498,None,290.4818742000498,None,290.4818742000498,None,290.4818742000498,None,290.4818742000498,None,290.4818742000498,None,290.4818742000498,None,290.4818742000498,None,,,,,,,,,,,,,frol_pilot,001,2021_Sep_09_1514,shapka,2021.1.4,None,
1,7,pre,left,left.png,left.png,bas,Яблоки,Пряники,fruit2.png,music2.png,music1.png,tool8.png,-298,-298,298,298,85,-85,85,-85,"[-200, 0]","[200, 0]","[81, 81]","[81, 81]","[81, 81]","[81, 81]",4,tool6.png,music7.png,animal1.png,animal10.png,None,None,None,None,-298,-298,298,298,-298,-298,298,298,-316,316,-316,316,200,-200,200,-200,"[81, 81]","[81, 81]","[81, 81]","[81, 81]","[81, 81]","[81, 81]","[81, 81]","[81, 81]",,,,,0,41,41,206,,,,,,,,,,,,,,,,,,,,,,,291.13922610040754,None,291.13922610040754,None,291.13922610040754,None,291.3511324999854,None,291.75629710033536,None,291.75629710033536,None,291.75629710033536,None,292.1677631000057,None,,,,,,,,,,,,,,,,,,,,,293.19215990044177,None,p,0.40817830013111234,293.19215990044177,None,293.19215990044177,None,293.19215990044177,None,293.19215990044177,None,293.19215990044177,None,293.19215990044177,None,293.19215990044177,None,293.19215990044177,None,293.19215990044177,None,293.19215990044177,None,293.19215990044177,None,293.19215990044177,None,293.19215990044177,None,,,,,,,,,,,,,frol_pilot,001,2021_Sep_09_1514,shapka,2021.1.4,None,
1,5,pre,left,left.png,left.png,bas,Яблоки,Пряники,fruit5.png,car7.png,tool6.png,animal5.png,-298,-298,298,298,316,-316,316,-316,"[-200, 0]","[200, 0]","[81, 81]","[81, 81]","[81, 81]","[81, 81]",2,None,None,None,None,None,None,None,None,-298,-298,298,298,-298,-298,298,298,85,-85,85,-85,200,-200,200,-200,"[81, 81]","[81, 81]","[81, 81]","[81, 81]","[81, 81]","[81, 81]","[81, 81]","[81, 81]",,,,,0,42,42,198,,,,,,,,,,,,,,,,,,,,,,,293.63944709999487,None,293.63944709999487,None,293.63944709999487,None,293.8510886002332,None,294.25375180039555,None,294.25375180039555,None,294.25375180039555,None,294.6678894003853,None,,,,,,,,,,,,,,,,,,,,,295.6895454004407,None,p,0.5027112001553178,295.6895454004407,None,295.6895454004407,None,295.6895454004407,None,295.6895454004407,None,295.6895454004407,None,295.6895454004407,None,295.6895454004407,None,295.6895454004407,None,295.6895454004407,None,295.6895454004407,None,295.6895454004407,None,295.6895454004407,None,295.6895454004407,None,,,,,,,,,,,,,frol_pilot,001,2021_Sep_09_1514,shapka,2021.1.4,None,
1,10,abs,left,left.png,left.png,non,Стулья,Брусья,tool7.png,tool3.png,tool8.png,music1.png,-298,-298,298,298,-316,316,-316,316,"[-200, 0]","[200, 0]","[81, 81]","[81, 81]","[81, 81]","[81, 81]",6,music6.png,animal5.png,tool1.png,car9.png,animal7.png,animal10.png,animal4.png,tool2.png,-298,-298,298,298,-298,-298,298,298,85,-85,85,-85,-200,200,-200,200,"[81, 81]","[81, 81]","[81, 81]","[81, 81]","[81, 81]","[81, 81]","[81, 81]","[81, 81]",,,,,0,43,43,22,,,,,,,,,,,,,,,,,,,,,,,296.2581678000279,None,296.2581678000279,None,296.2581678000279,None,296.4679653001949,None,296.8729690001346,None,296.8729690001346,None,296.8729690001346,None,297.28459760034457,None,,,,,,,,,,,,,,,,,,,,,298.32827800000086,None,p,0.4639238999225199,298.32827800000086,None,298.32827800000086,None,298.32827800000086,None,298.32827800000086,None,298.32827800000086,None,298.32827800000086,None,298.32827800000086,None,298.32827800000086,None,298.32827800000086,None,298.32827800000086,None,298.32827800000086,None,298.32827800000086,None,298.32827800000086,None,,,,,,,,,,,,,frol_pilot,001,2021_Sep_09_1514,shapka,2021.1.4,None,
1,7,pre,left,left.png,left.png,bas,Стулья,Брусья,furniture2.png,tool6.png,tool5.png,car10.png,-298,-298,298,298,-85,85,-85,85,"[-200, 0]","[200, 0]","[81, 81]","[81, 81]","[81, 81]","[81, 81]",4,tool7.png,animal1.png,animal2.png,music8.png,None,None,None,None,-298,-298,298,298,-298,-298,298,298,316,-316,316,-316,200,-200,200,-200,"[81, 81]","[81, 81]","[81, 81]","[81, 81]","[81, 81]","[81, 81]","[81, 81]","[81, 81]",,,,,0,44,44,148,,,,,,,,,,,,,,,,,,,,,,,298.84151579998434,None,298.84151579998434,None,298.84151579998434,None,299.0513492003083,None,299.4531383002177,None,299.4531383002177,None,299.4531383002177,None,299.868138700258,None,,,,,,,,,,,,,,,,,,,,,300.8939555999823,None,p,0.6905641001649201,300.8939555999823,None,300.8939555999823,None,300.8939555999823,None,300.8939555999823,None,300.8939555999823,None,300.8939555999823,None,300.8939555999823,None,300.8939555999823,None,300.8939555999823,None,300.8939555999823,None,300.8939555999823,None,300.8939555999823,None,300.8939555999823,None,,,,,,,,,,,,,frol_pilot,001,2021_Sep_09_1514,shapka,2021.1.4,None,
2,9,pre,right,right.png,right.png,bas,Стулья,Брусья,furniture4.png,animal2.png,animal1.png,car10.png,298,298,-298,-298,85,-85,85,-85,"[200, 0]","[-200, 0]","[81, 81]","[81, 81]","[81, 81]","[81, 81]",6,music3.png,animal8.png,music4.png,car9.png,animal7.png,car5.png,car1.png,car6.png,298,298,-298,-298,298,298,-298,-298,-316,316,-316,316,200,-200,200,-200,"[81, 81]","[81, 81]","[81, 81]","[81, 81]","[81, 81]","[81, 81]","[81, 81]","[81, 81]",,,,,0,45,45,277,,,,,,,,,,,,,,,,,,,,,,,301.6257058000192,None,301.6257058000192,None,301.6257058000192,None,301.83495709998533,None,302.2372457003221,None,302.2372457003221,None,302.2372457003221,None,302.6515906001441,None,,,,,,,,,,,,,,,,,,,,,303.67319780029356,None,p,0.5190781997516751,303.67319780029356,None,303.67319780029356,None,303.67319780029356,None,303.67319780029356,None,303.67319780029356,None,303.67319780029356,None,303.67319780029356,None,303.67319780029356,None,303.67319780029356,None,303.67319780029356,None,303.67319780029356,None,303.67319780029356,None,303.67319780029356,None,,,,,,,,,,,,,frol_pilot,001,2021_Sep_09_1514,shapka,2021.1.4,None,
1,5,pre,left,left.png,left.png,bas,Стулья,Брусья,furniture2.png,car10.png,music3.png,tool6.png,-298,-298,298,298,316,-316,316,-316,"[-200, 0]","[200, 0]","[81, 81]","[81, 81]","[81, 81]","[81, 81]",2,None,None,None,None,None,None,None,None,-298,-298,298,298,-298,-298,298,298,85,-85,85,-85,200,-200,200,-200,"[81, 81]","[81, 81]","[81, 81]","[81, 81]","[81, 81]","[81, 81]","[81, 81]","[81, 81]",,,,,0,46,46,142,,,,,,,,,,,,,,,,,,,,,,,304.24006050033495,None,304.24006050033495,None,304.24006050033495,None,304.45171800022945,None,304.8537170002237,None,304.8537170002237,None,304.8537170002237,None,305.2684121001512,None,,,,,,,,,,,,,,,,,,,,,306.2835492002778,None,p,0.48469969956204295,306.2835492002778,None,306.2835492002778,None,306.2835492002778,None,306.2835492002778,None,306.2835492002778,None,306.2835492002778,None,306.2835492002778,None,306.2835492002778,None,306.2835492002778,None,306.2835492002778,None,306.2835492002778,None,306.2835492002778,None,306.2835492002778,None,,,,,,,,,,,,,frol_pilot,001,2021_Sep_09_1514,shapka,2021.1.4,None,
1,7,pre,left,left.png,left.png,bas,Чашки,Шашки,tableware2.png,tool1.png,animal6.png,tool9.png,-298,-298,298,298,85,-85,85,-85,"[-200, 0]","[200, 0]","[81, 81]","[81, 81]","[81, 81]","[81, 81]",4,car1.png,animal7.png,tool5.png,tool3.png,None,None,None,None,-298,-298,298,298,-298,-298,298,298,316,-316,316,-316,200,-200,200,-200,"[81, 81]","[81, 81]","[81, 81]","[81, 81]","[81, 81]","[81, 81]","[81, 81]","[81, 81]",,,,,0,47,47,180,,,,,,,,,,,,,,,,,,,,,,,306.82256830018014,None,306.82256830018014,None,306.82256830018014,None,307.03504200000316,None,307.4399666003883,None,307.4399666003883,None,307.4399666003883,None,307.85185480024666,None,,,,,,,,,,,,,,,,,,,,,308.8760185004212,None,p,0.9565754998475313,308.8760185004212,None,308.8760185004212,None,308.8760185004212,None,308.8760185004212,None,308.8760185004212,None,308.8760185004212,None,308.8760185004212,None,308.8760185004212,None,308.8760185004212,None,308.8760185004212,None,308.8760185004212,None,308.8760185004212,None,308.8760185004212,None,,,,,,,,,,,,,frol_pilot,001,2021_Sep_09_1514,shapka,2021.1.4,None,
2,5,pre,right,right.png,right.png,bas,Рубашки,Барашки,clothes1.png,tool1.png,tool4.png,tool10.png,298,298,-298,-298,-316,316,-316,316,"[200, 0]","[-200, 0]","[81, 81]","[81, 81]","[81, 81]","[81, 81]",2,None,None,None,None,None,None,None,None,298,298,-298,-298,298,298,-298,-298,-85,85,-85,85,-200,200,-200,200,"[81, 81]","[81, 81]","[81, 81]","[81, 81]","[81, 81]","[81, 81]","[81, 81]","[81, 81]",,,,,0,48,48,231,,,,,,,,,,,,,,,,,,,,,,,309.8754932000302,None,309.8754932000302,None,309.8754932000302,None,310.0852226000279,None,310.4901099000126,None,310.4901099000126,None,310.4901099000126,None,310.90177480038255,None,,,,,,,,,,,,,,,,,,,,,311.91825180035084,None,p,0.4500874998047948,311.91825180035084,None,311.91825180035084,None,311.91825180035084,None,311.91825180035084,None,311.91825180035084,None,311.91825180035084,None,311.91825180035084,None,311.91825180035084,None,311.91825180035084,None,311.91825180035084,None,311.91825180035084,None,311.91825180035084,None,311.91825180035084,None,,,,,,,,,,,,,frol_pilot,001,2021_Sep_09_1514,shapka,2021.1.4,None,
2,7,pre,right,right.png,right.png,bas,Рубашки,Барашки,clothes4.png,animal1.png,tool2.png,tool4.png,298,298,-298,-298,-316,316,-316,316,"[200, 0]","[-200, 0]","[81, 81]","[81, 81]","[81, 81]","[81, 81]",4,tool8.png,car6.png,car7.png,tool10.png,None,None,None,None,298,298,-298,-298,298,298,-298,-298,85,-85,85,-85,200,-200,200,-200,"[81, 81]","[81, 81]","[81, 81]","[81, 81]","[81, 81]","[81, 81]","[81, 81]","[81, 81]",,,,,0,49,49,238,,,,,,,,,,,,,,,,,,,,,,,312.4308892004192,None,312.4308892004192,None,312.4308892004192,None,312.63530020043254,None,313.0379519001581,None,313.0379519001581,None,313.0379519001581,None,313.45213020034134,None,,,,,,,,,,,,,,,,,,,,,314.4739202000201,None,p,0.6784735000692308,314.4739202000201,None,314.4739202000201,None,314.4739202000201,None,314.4739202000201,None,314.4739202000201,None,314.4739202000201,None,314.4739202000201,None,314.4739202000201,None,314.4739202000201,None,314.4739202000201,None,314.4739202000201,None,314.4739202000201,None,314.4739202000201,None,,,,,,,,,,,,,frol_pilot,001,2021_Sep_09_1514,shapka,2021.1.4,None,
2,9,pre,right,right.png,right.png,bas,Яблоки,Пряники,fruit1.png,tool1.png,tool3.png,car8.png,298,298,-298,-298,-200,200,-200,200,"[200, 0]","[-200, 0]","[81, 81]","[81, 81]","[81, 81]","[81, 81]",6,tool6.png,music9.png,animal7.png,animal4.png,animal10.png,tool5.png,tool2.png,music6.png,298,298,-298,-298,298,298,-298,-298,85,-85,85,-85,-316,316,-316,316,"[81, 81]","[81, 81]","[81, 81]","[81, 81]","[81, 81]","[81, 81]","[81, 81]","[81, 81]",,,,,0,50,50,336,,,,,,,,,,,,,,,,,,,,,,,315.1949690002948,None,315.1949690002948,None,315.1949690002948,None,315.4022083003074,None,315.8134451000951,None,315.8134451000951,None,315.8134451000951,None,316.2188049000688,None,,,,,,,,,,,,,,,,,,,,,317.25712690036744,None,p,0.5353918001055717,317.25712690036744,None,317.25712690036744,None,317.25712690036744,None,317.25712690036744,None,317.25712690036744,None,317.25712690036744,None,317.25712690036744,None,317.25712690036744,None,317.25712690036744,None,317.25712690036744,None,317.25712690036744,None,317.25712690036744,None,317.25712690036744,None,,,,,,,,,,,,,frol_pilot,001,2021_Sep_09_1514,shapka,2021.1.4,None,
1,8,abs,left,left.png,left.png,non,Рубашки,Барашки,music7.png,animal1.png,animal7.png,animal6.png,-298,-298,298,298,316,-316,316,-316,"[-200, 0]","[200, 0]","[81, 81]","[81, 81]","[81, 81]","[81, 81]",4,music1.png,music5.png,tool2.png,car9.png,None,None,None,None,-298,-298,298,298,-298,-298,298,298,-85,85,-85,85,200,-200,200,-200,"[81, 81]","[81, 81]","[81, 81]","[81, 81]","[81, 81]","[81, 81]","[81, 81]","[81, 81]",,,,,0,51,51,6,,,,,,,,,,,,,,,,,,,,,,,317.84278180031106,None,317.84278180031106,None,317.84278180031106,None,318.0518855000846,None,318.4583188001998,None,318.4583188001998,None,318.4583188001998,None,318.8689177003689,None,,,,,,,,,,,,,,,,,,,,,319.8986769001931,None,a,0.6457953997887671,319.8986769001931,None,319.8986769001931,None,319.8986769001931,None,319.8986769001931,None,319.8986769001931,None,319.8986769001931,None,319.8986769001931,None,319.8986769001931,None,319.8986769001931,None,319.8986769001931,None,319.8986769001931,None,319.8986769001931,None,319.8986769001931,None,,,,,,,,,,,,,frol_pilot,001,2021_Sep_09_1514,shapka,2021.1.4,None,
2,7,pre,right,right.png,right.png,bas,Рубашки,Барашки,clothes3.png,car10.png,animal7.png,tool5.png,298,298,-298,-298,-316,316,-316,316,"[200, 0]","[-200, 0]","[81, 81]","[81, 81]","[81, 81]","[81, 81]",4,animal1.png,car2.png,music3.png,music6.png,None,None,None,None,298,298,-298,-298,298,298,-298,-298,-85,85,-85,85,200,-200,200,-200,"[81, 81]","[81, 81]","[81, 81]","[81, 81]","[81, 81]","[81, 81]","[81, 81]","[81, 81]",,,,,0,52,52,235,,,,,,,,,,,,,,,,,,,,,,,320.5931312004104,None,320.5931312004104,None,320.5931312004104,None,320.8023362001404,None,321.2047744002193,None,321.2047744002193,None,321.2047744002193,None,321.6191641003825,None,,,,,,,,,,,,,,,,,,,,,322.6574570001103,None,p,0.6147457002662122,322.6574570001103,None,322.6574570001103,None,322.6574570001103,None,322.6574570001103,None,322.6574570001103,None,322.6574570001103,None,322.6574570001103,None,322.6574570001103,None,322.6574570001103,None,322.6574570001103,None,322.6574570001103,None,322.6574570001103,None,322.6574570001103,None,,,,,,,,,,,,,frol_pilot,001,2021_Sep_09_1514,shapka,2021.1.4,None,
1,9,pre,left,left.png,left.png,bas,Рубашки,Барашки,clothes3.png,tool10.png,tool1.png,car1.png,-298,-298,298,298,-85,85,-85,85,"[-200, 0]","[200, 0]","[81, 81]","[81, 81]","[81, 81]","[81, 81]",6,car9.png,tool3.png,animal2.png,music4.png,music5.png,car8.png,music6.png,car7.png,-298,-298,298,298,-298,-298,298,298,316,-316,316,-316,-200,200,-200,200,"[81, 81]","[81, 81]","[81, 81]","[81, 81]","[81, 81]","[81, 81]","[81, 81]","[81, 81]",,,,,0,53,53,129,,,,,,,,,,,,,,,,,,,,,,,323.33007600018755,None,323.33007600018755,None,323.33007600018755,None,323.53570330003276,None,323.93830150039867,None,323.93830150039867,None,323.93830150039867,None,324.35256909998134,None,,,,,,,,,,,,,,,,,,,,,325.3900957000442,None,p,0.4023181996308267,325.3900957000442,None,325.3900957000442,None,325.3900957000442,None,325.3900957000442,None,325.3900957000442,None,325.3900957000442,None,325.3900957000442,None,325.3900957000442,None,325.3900957000442,None,325.3900957000442,None,325.3900957000442,None,325.3900957000442,None,325.3900957000442,None,,,,,,,,,,,,,frol_pilot,001,2021_Sep_09_1514,shapka,2021.1.4,None,
1,8,abs,left,left.png,left.png,non,Яблоки,Пряники,music4.png,music6.png,tool3.png,car2.png,-298,-298,298,298,-316,316,-316,316,"[-200, 0]","[200, 0]","[81, 81]","[81, 81]","[81, 81]","[81, 81]",4,animal1.png,car7.png,tool5.png,tool10.png,None,None,None,None,-298,-298,298,298,-298,-298,298,298,85,-85,85,-85,200,-200,200,-200,"[81, 81]","[81, 81]","[81, 81]","[81, 81]","[81, 81]","[81, 81]","[81, 81]","[81, 81]",,,,,0,54,54,44,,,,,,,,,,,,,,,,,,,,,,,325.8422802002169,None,325.8422802002169,None,325.8422802002169,None,326.0526097002439,None,326.4599942001514,None,326.4599942001514,None,326.4599942001514,None,326.86929350020364,None,,,,,,,,,,,,,,,,,,,,,327.8959668003954,None,a,0.9845472001470625,327.8959668003954,None,327.8959668003954,None,327.8959668003954,None,327.8959668003954,None,327.8959668003954,None,327.8959668003954,None,327.8959668003954,None,327.8959668003954,None,327.8959668003954,None,327.8959668003954,None,327.8959668003954,None,327.8959668003954,None,327.8959668003954,None,,,,,,,,,,,,,frol_pilot,001,2021_Sep_09_1514,shapka,2021.1.4,None,
1,9,pre,left,left.png,left.png,bas,Рубашки,Барашки,clothes3.png,tool2.png,music1.png,car4.png,-298,-298,298,298,-85,85,-85,85,"[-200, 0]","[200, 0]","[81, 81]","[81, 81]","[81, 81]","[81, 81]",6,car1.png,music9.png,car10.png,animal8.png,tool3.png,tool6.png,animal7.png,music5.png,-298,-298,298,298,-298,-298,298,298,316,-316,316,-316,-200,200,-200,200,"[81, 81]","[81, 81]","[81, 81]","[81, 81]","[81, 81]","[81, 81]","[81, 81]","[81, 81]",,,,,0,55,55,132,,,,,,,,,,,,,,,,,,,,,,,328.9242689004168,None,328.9242689004168,None,328.9242689004168,None,329.1360512999818,None,329.5410002004355,None,329.5410002004355,None,329.5410002004355,None,329.9527549003251,None,,,,,,,,,,,,,,,,,,,,,330.9860097002238,None,p,0.6784708998166025,330.9860097002238,None,330.9860097002238,None,330.9860097002238,None,330.9860097002238,None,330.9860097002238,None,330.9860097002238,None,330.9860097002238,None,330.9860097002238,None,330.9860097002238,None,330.9860097002238,None,330.9860097002238,None,330.9860097002238,None,330.9860097002238,None,,,,,,,,,,,,,frol_pilot,001,2021_Sep_09_1514,shapka,2021.1.4,None,
2,5,pre,right,right.png,right.png,bas,Чашки,Шашки,tableware5.png,tool1.png,animal1.png,animal2.png,298,298,-298,-298,-316,316,-316,316,"[200, 0]","[-200, 0]","[81, 81]","[81, 81]","[81, 81]","[81, 81]",2,None,None,None,None,None,None,None,None,298,298,-298,-298,298,298,-298,-298,-85,85,-85,85,-200,200,-200,200,"[81, 81]","[81, 81]","[81, 81]","[81, 81]","[81, 81]","[81, 81]","[81, 81]","[81, 81]",,,,,0,56,56,289,,,,,,,,,,,,,,,,,,,,,,,331.71071730041876,None,331.71071730041876,None,331.71071730041876,None,331.91966060036793,None,332.32530490029603,None,332.32530490029603,None,332.32530490029603,None,332.7362278001383,None,,,,,,,,,,,,,,,,,,,,,333.756838100031,None,p,0.6758036999963224,333.756838100031,None,333.756838100031,None,333.756838100031,None,333.756838100031,None,333.756838100031,None,333.756838100031,None,333.756838100031,None,333.756838100031,None,333.756838100031,None,333.756838100031,None,333.756838100031,None,333.756838100031,None,333.756838100031,None,,,,,,,,,,,,,frol_pilot,001,2021_Sep_09_1514,shapka,2021.1.4,None,
1,7,pre,left,left.png,left.png,bas,Чашки,Шашки,tableware4.png,car3.png,music1.png,car6.png,-298,-298,298,298,85,-85,85,-85,"[-200, 0]","[200, 0]","[81, 81]","[81, 81]","[81, 81]","[81, 81]",4,music2.png,music8.png,music4.png,animal9.png,None,None,None,None,-298,-298,298,298,-298,-298,298,298,-316,316,-316,316,200,-200,200,-200,"[81, 81]","[81, 81]","[81, 81]","[81, 81]","[81, 81]","[81, 81]","[81, 81]","[81, 81]",,,,,0,57,57,178,,,,,,,,,,,,,,,,,,,,,,,334.47601180011407,None,334.47601180011407,None,334.47601180011407,None,334.68607830023393,None,335.08855280000716,None,335.08855280000716,None,335.08855280000716,None,335.5031092003919,None,,,,,,,,,,,,,,,,,,,,,336.5300858002156,None,p,0.4463982000015676,336.5300858002156,None,336.5300858002156,None,336.5300858002156,None,336.5300858002156,None,336.5300858002156,None,336.5300858002156,None,336.5300858002156,None,336.5300858002156,None,336.5300858002156,None,336.5300858002156,None,336.5300858002156,None,336.5300858002156,None,336.5300858002156,None,,,,,,,,,,,,,frol_pilot,001,2021_Sep_09_1514,shapka,2021.1.4,None,
1,6,abs,left,left.png,left.png,non,Стулья,Брусья,tool10.png,tool1.png,tool5.png,music10.png,-298,-298,298,298,-316,316,-316,316,"[-200, 0]","[200, 0]","[81, 81]","[81, 81]","[81, 81]","[81, 81]",2,None,None,None,None,None,None,None,None,-298,-298,298,298,-298,-298,298,298,-85,85,-85,85,-200,200,-200,200,"[81, 81]","[81, 81]","[81, 81]","[81, 81]","[81, 81]","[81, 81]","[81, 81]","[81, 81]",,,,,0,58,58,13,,,,,,,,,,,,,,,,,,,,,,,337.02652120031416,None,337.02652120031416,None,337.02652120031416,None,337.23653060011566,None,337.64135610032827,None,337.64135610032827,None,337.64135610032827,None,338.0531593002379,None,,,,,,,,,,,,,,,,,,,,,339.06956110009924,None,a,3.482877899892628,339.06956110009924,None,339.06956110009924,None,339.06956110009924,None,339.06956110009924,None,339.06956110009924,None,339.06956110009924,None,339.06956110009924,None,339.06956110009924,None,339.06956110009924,None,339.06956110009924,None,339.06956110009924,None,339.06956110009924,None,339.06956110009924,None,,,,,,,,,,,,,frol_pilot,001,2021_Sep_09_1514,shapka,2021.1.4,None,
1,5,pre,left,left.png,left.png,bas,Яблоки,Пряники,fruit4.png,music3.png,car8.png,car5.png,-298,-298,298,298,316,-316,316,-316,"[-200, 0]","[200, 0]","[81, 81]","[81, 81]","[81, 81]","[81, 81]",2,None,None,None,None,None,None,None,None,-298,-298,298,298,-298,-298,298,298,85,-85,85,-85,200,-200,200,-200,"[81, 81]","[81, 81]","[81, 81]","[81, 81]","[81, 81]","[81, 81]","[81, 81]","[81, 81]",,,,,0,59,59,197,,,,,,,,,,,,,,,,,,,,,,,342.60831880010664,None,342.60831880010664,None,342.60831880010664,None,342.82015949999914,None,343.22341370023787,None,343.22341370023787,None,343.22341370023787,None,343.6364439004101,None,,,,,,,,,,,,,,,,,,,,,344.6512036002241,None,p,0.3493762002326548,344.6512036002241,None,344.6512036002241,None,344.6512036002241,None,344.6512036002241,None,344.6512036002241,None,344.6512036002241,None,344.6512036002241,None,344.6512036002241,None,344.6512036002241,None,344.6512036002241,None,344.6512036002241,None,344.6512036002241,None,344.6512036002241,None,,,,,,,,,,,,,frol_pilot,001,2021_Sep_09_1514,shapka,2021.1.4,None,
1,7,pre,left,left.png,left.png,bas,Рубашки,Барашки,clothes1.png,tool6.png,animal4.png,music10.png,-298,-298,298,298,-316,316,-316,316,"[-200, 0]","[200, 0]","[81, 81]","[81, 81]","[81, 81]","[81, 81]",4,tool3.png,music4.png,car8.png,animal1.png,None,None,None,None,-298,-298,298,298,-298,-298,298,298,85,-85,85,-85,200,-200,200,-200,"[81, 81]","[81, 81]","[81, 81]","[81, 81]","[81, 81]","[81, 81]","[81, 81]","[81, 81]",,,,,0,60,60,119,,,,,,,,,,,,,,,,,,,,,,,345.043170100078,None,345.043170100078,None,345.043170100078,None,345.2536301002838,None,345.65951630007476,None,345.65951630007476,None,345.65951630007476,None,346.0701841004193,None,,,,,,,,,,,,,,,,,,,,,347.1065014000051,None,p,0.5177571000531316,347.1065014000051,None,347.1065014000051,None,347.1065014000051,None,347.1065014000051,None,347.1065014000051,None,347.1065014000051,None,347.1065014000051,None,347.1065014000051,None,347.1065014000051,None,347.1065014000051,None,347.1065014000051,None,347.1065014000051,None,347.1065014000051,None,,,,,,,,,,,,,frol_pilot,001,2021_Sep_09_1514,shapka,2021.1.4,None,
2,5,pre,right,right.png,right.png,bas,Чашки,Шашки,tableware3.png,animal3.png,car2.png,animal8.png,298,298,-298,-298,-316,316,-316,316,"[200, 0]","[-200, 0]","[81, 81]","[81, 81]","[81, 81]","[81, 81]",2,None,None,None,None,None,None,None,None,298,298,-298,-298,298,298,-298,-298,-85,85,-85,85,-200,200,-200,200,"[81, 81]","[81, 81]","[81, 81]","[81, 81]","[81, 81]","[81, 81]","[81, 81]","[81, 81]",,,,,0,61,61,287,,,,,,,,,,,,,,,,,,,,,,,347.6915407003835,None,347.6915407003835,None,347.6915407003835,None,347.9037696002051,None,348.3098493004218,None,348.3098493004218,None,348.3098493004218,None,348.7202364001423,None,,,,,,,,,,,,,,,,,,,,,349.74308860022575,None,p,0.48110860027372837,349.74308860022575,None,349.74308860022575,None,349.74308860022575,None,349.74308860022575,None,349.74308860022575,None,349.74308860022575,None,349.74308860022575,None,349.74308860022575,None,349.74308860022575,None,349.74308860022575,None,349.74308860022575,None,349.74308860022575,None,349.74308860022575,None,,,,,,,,,,,,,frol_pilot,001,2021_Sep_09_1514,shapka,2021.1.4,None,
1,7,pre,left,left.png,left.png,bas,Чашки,Шашки,tableware1.png,music5.png,animal4.png,music10.png,-298,-298,298,298,85,-85,85,-85,"[-200, 0]","[200, 0]","[81, 81]","[81, 81]","[81, 81]","[81, 81]",4,car3.png,animal9.png,car1.png,music6.png,None,None,None,None,-298,-298,298,298,-298,-298,298,298,-316,316,-316,316,200,-200,200,-200,"[81, 81]","[81, 81]","[81, 81]","[81, 81]","[81, 81]","[81, 81]","[81, 81]","[81, 81]",,,,,0,62,62,179,,,,,,,,,,,,,,,,,,,,,,,350.2835623002611,None,350.2835623002611,None,350.2835623002611,None,350.4871093002148,None,350.8892526002601,None,350.8892526002601,None,350.8892526002601,None,351.30380830029026,None,,,,,,,,,,,,,,,,,,,,,352.32550510019064,None,p,0.5148777002468705,352.32550510019064,None,352.32550510019064,None,352.32550510019064,None,352.32550510019064,None,352.32550510019064,None,352.32550510019064,None,352.32550510019064,None,352.32550510019064,None,352.32550510019064,None,352.32550510019064,None,352.32550510019064,None,352.32550510019064,None,352.32550510019064,None,,,,,,,,,,,,,frol_pilot,001,2021_Sep_09_1514,shapka,2021.1.4,None,
1,9,pre,left,left.png,left.png,bas,Рубашки,Барашки,clothes2.png,animal8.png,music10.png,car2.png,-298,-298,298,298,-85,85,-85,85,"[-200, 0]","[200, 0]","[81, 81]","[81, 81]","[81, 81]","[81, 81]",6,animal3.png,music1.png,car1.png,animal6.png,animal5.png,car4.png,tool9.png,car7.png,-298,-298,298,298,-298,-298,298,298,316,-316,316,-316,200,-200,200,-200,"[81, 81]","[81, 81]","[81, 81]","[81, 81]","[81, 81]","[81, 81]","[81, 81]","[81, 81]",,,,,0,63,63,128,,,,,,,,,,,,,,,,,,,,,,,352.89553650002927,None,352.89553650002927,None,352.89553650002927,None,353.10393680026755,None,353.5087539004162,None,353.5087539004162,None,353.5087539004162,None,353.9204039000906,None,,,,,,,,,,,,,,,,,,,,,354.9531228002161,None,p,0.4633677997626364,354.9531228002161,None,354.9531228002161,None,354.9531228002161,None,354.9531228002161,None,354.9531228002161,None,354.9531228002161,None,354.9531228002161,None,354.9531228002161,None,354.9531228002161,None,354.9531228002161,None,354.9531228002161,None,354.9531228002161,None,354.9531228002161,None,,,,,,,,,,,,,frol_pilot,001,2021_Sep_09_1514,shapka,2021.1.4,None,
2,9,pre,right,right.png,right.png,bas,Чашки,Шашки,tableware3.png,music3.png,music10.png,animal1.png,298,298,-298,-298,-200,200,-200,200,"[200, 0]","[-200, 0]","[81, 81]","[81, 81]","[81, 81]","[81, 81]",6,animal9.png,music8.png,car1.png,animal4.png,music5.png,animal7.png,car6.png,car2.png,298,298,-298,-298,298,298,-298,-298,85,-85,85,-85,316,-316,316,-316,"[81, 81]","[81, 81]","[81, 81]","[81, 81]","[81, 81]","[81, 81]","[81, 81]","[81, 81]",,,,,0,64,64,303,,,,,,,,,,,,,,,,,,,,,,,355.46125590009615,None,355.46125590009615,None,355.46125590009615,None,355.67085480038077,None,356.0796153000556,None,356.0796153000556,None,356.0796153000556,None,356.487322000321,None,,,,,,,,,,,,,,,,,,,,,357.5257239001803,None,p,0.45881700003519654,357.5257239001803,None,357.5257239001803,None,357.5257239001803,None,357.5257239001803,None,357.5257239001803,None,357.5257239001803,None,357.5257239001803,None,357.5257239001803,None,357.5257239001803,None,357.5257239001803,None,357.5257239001803,None,357.5257239001803,None,357.5257239001803,None,,,,,,,,,,,,,frol_pilot,001,2021_Sep_09_1514,shapka,2021.1.4,None,
1,10,abs,left,left.png,left.png,non,Чашки,Шашки,tool4.png,car4.png,tool3.png,music10.png,-298,-298,298,298,-316,316,-316,316,"[-200, 0]","[200, 0]","[81, 81]","[81, 81]","[81, 81]","[81, 81]",6,music5.png,music6.png,tool1.png,car9.png,car8.png,car7.png,tool2.png,car1.png,-298,-298,298,298,-298,-298,298,298,-85,85,-85,85,-200,200,-200,200,"[81, 81]","[81, 81]","[81, 81]","[81, 81]","[81, 81]","[81, 81]","[81, 81]","[81, 81]",,,,,0,65,65,37,,,,,,,,,,,,,,,,,,,,,,,358.02728730021045,None,358.02728730021045,None,358.02728730021045,None,358.23735360009596,None,358.6395927001722,None,358.6395927001722,None,358.6395927001722,None,359.054094100371,None,,,,,,,,,,,,,,,,,,,,,360.0862325001508,None,a,1.4102419996634126,360.0862325001508,None,360.0862325001508,None,360.0862325001508,None,360.0862325001508,None,360.0862325001508,None,360.0862325001508,None,360.0862325001508,None,360.0862325001508,None,360.0862325001508,None,360.0862325001508,None,360.0862325001508,None,360.0862325001508,None,360.0862325001508,None,,,,,,,,,,,,,frol_pilot,001,2021_Sep_09_1514,shapka,2021.1.4,None,
2,9,pre,right,right.png,right.png,bas,Рубашки,Барашки,clothes4.png,animal9.png,animal4.png,music2.png,298,298,-298,-298,85,-85,85,-85,"[200, 0]","[-200, 0]","[81, 81]","[81, 81]","[81, 81]","[81, 81]",6,music1.png,car3.png,animal2.png,music5.png,tool6.png,tool10.png,tool7.png,music8.png,298,298,-298,-298,298,298,-298,-298,316,-316,316,-316,200,-200,200,-200,"[81, 81]","[81, 81]","[81, 81]","[81, 81]","[81, 81]","[81, 81]","[81, 81]","[81, 81]",,,,,0,66,66,244,,,,,,,,,,,,,,,,,,,,,,,361.545194900129,None,361.545194900129,None,361.545194900129,None,361.7542060003616,None,362.15915820002556,None,362.15915820002556,None,362.15915820002556,None,362.5708891004324,None,,,,,,,,,,,,,,,,,,,,,363.6105673001148,None,p,0.6378577998839319,363.6105673001148,None,363.6105673001148,None,363.6105673001148,None,363.6105673001148,None,363.6105673001148,None,363.6105673001148,None,363.6105673001148,None,363.6105673001148,None,363.6105673001148,None,363.6105673001148,None,363.6105673001148,None,363.6105673001148,None,363.6105673001148,None,,,,,,,,,,,,,frol_pilot,001,2021_Sep_09_1514,shapka,2021.1.4,None,
2,8,abs,right,right.png,right.png,non,Стулья,Брусья,animal5.png,music7.png,car10.png,music5.png,298,298,-298,-298,316,-316,316,-316,"[200, 0]","[-200, 0]","[81, 81]","[81, 81]","[81, 81]","[81, 81]",4,animal1.png,animal4.png,car3.png,animal8.png,None,None,None,None,298,298,-298,-298,298,298,-298,-298,-85,85,-85,85,200,-200,200,-200,"[81, 81]","[81, 81]","[81, 81]","[81, 81]","[81, 81]","[81, 81]","[81, 81]","[81, 81]",,,,,0,67,67,69,,,,,,,,,,,,,,,,,,,,,,,364.295270500239,None,364.295270500239,None,364.295270500239,None,364.5043619000353,None,364.9092647000216,None,364.9092647000216,None,364.9092647000216,None,365.3210301003419,None,,,,,,,,,,,,,,,,,,,,,366.3443356002681,None,a,0.9281223001889884,366.3443356002681,None,366.3443356002681,None,366.3443356002681,None,366.3443356002681,None,366.3443356002681,None,366.3443356002681,None,366.3443356002681,None,366.3443356002681,None,366.3443356002681,None,366.3443356002681,None,366.3443356002681,None,366.3443356002681,None,366.3443356002681,None,,,,,,,,,,,,,frol_pilot,001,2021_Sep_09_1514,shapka,2021.1.4,None,
1,9,pre,left,left.png,left.png,bas,Чашки,Шашки,tableware4.png,car4.png,car10.png,car6.png,-298,-298,298,298,-200,200,-200,200,"[-200, 0]","[200, 0]","[81, 81]","[81, 81]","[81, 81]","[81, 81]",6,animal1.png,tool8.png,music1.png,animal2.png,car5.png,animal9.png,animal7.png,animal3.png,-298,-298,298,298,-298,-298,298,298,85,-85,85,-85,316,-316,316,-316,"[81, 81]","[81, 81]","[81, 81]","[81, 81]","[81, 81]","[81, 81]","[81, 81]","[81, 81]",,,,,0,68,68,184,,,,,,,,,,,,,,,,,,,,,,,367.3094473001547,None,367.3094473001547,None,367.3094473001547,None,367.521126200445,None,367.9260201002471,None,367.9260201002471,None,367.9260201002471,None,368.33794410014525,None,,,,,,,,,,,,,,,,,,,,,369.3673319001682,None,p,0.6408561998978257,369.3673319001682,None,369.3673319001682,None,369.3673319001682,None,369.3673319001682,None,369.3673319001682,None,369.3673319001682,None,369.3673319001682,None,369.3673319001682,None,369.3673319001682,None,369.3673319001682,None,369.3673319001682,None,369.3673319001682,None,369.3673319001682,None,,,,,,,,,,,,,frol_pilot,001,2021_Sep_09_1514,shapka,2021.1.4,None,
1,5,pre,left,left.png,left.png,bas,Яблоки,Пряники,fruit2.png,animal3.png,tool7.png,music6.png,-298,-298,298,298,316,-316,316,-316,"[-200, 0]","[200, 0]","[81, 81]","[81, 81]","[81, 81]","[81, 81]",2,None,None,None,None,None,None,None,None,-298,-298,298,298,-298,-298,298,298,85,-85,85,-85,200,-200,200,-200,"[81, 81]","[81, 81]","[81, 81]","[81, 81]","[81, 81]","[81, 81]","[81, 81]","[81, 81]",,,,,0,69,69,200,,,,,,,,,,,,,,,,,,,,,,,370.0595428002998,None,370.0595428002998,None,370.0595428002998,None,370.2713903002441,None,370.67792990012094,None,370.67792990012094,None,370.67792990012094,None,371.08792630024254,None,,,,,,,,,,,,,,,,,,,,,372.113082700409,None,p,0.43131239991635084,372.113082700409,None,372.113082700409,None,372.113082700409,None,372.113082700409,None,372.113082700409,None,372.113082700409,None,372.113082700409,None,372.113082700409,None,372.113082700409,None,372.113082700409,None,372.113082700409,None,372.113082700409,None,372.113082700409,None,,,,,,,,,,,,,frol_pilot,001,2021_Sep_09_1514,shapka,2021.1.4,None,
1,9,pre,left,left.png,left.png,bas,Яблоки,Пряники,fruit4.png,music1.png,car8.png,animal7.png,-298,-298,298,298,-200,200,-200,200,"[-200, 0]","[200, 0]","[81, 81]","[81, 81]","[81, 81]","[81, 81]",6,music4.png,music2.png,music9.png,music10.png,car1.png,animal3.png,animal6.png,car5.png,-298,-298,298,298,-298,-298,298,298,85,-85,85,-85,-316,316,-316,316,"[81, 81]","[81, 81]","[81, 81]","[81, 81]","[81, 81]","[81, 81]","[81, 81]","[81, 81]",,,,,0,70,70,214,,,,,,,,,,,,,,,,,,,,,,,372.60950220003724,None,372.60950220003724,None,372.60950220003724,None,372.821496500168,None,373.22360340040177,None,373.22360340040177,None,373.22360340040177,None,373.6381818000227,None,,,,,,,,,,,,,,,,,,,,,374.6712520001456,None,p,0.6730501004494727,374.6712520001456,None,374.6712520001456,None,374.6712520001456,None,374.6712520001456,None,374.6712520001456,None,374.6712520001456,None,374.6712520001456,None,374.6712520001456,None,374.6712520001456,None,374.6712520001456,None,374.6712520001456,None,374.6712520001456,None,374.6712520001456,None,,,,,,,,,,,,,frol_pilot,001,2021_Sep_09_1514,shapka,2021.1.4,None,
2,9,pre,right,right.png,right.png,bas,Чашки,Шашки,tableware5.png,animal10.png,tool5.png,animal9.png,298,298,-298,-298,-200,200,-200,200,"[200, 0]","[-200, 0]","[81, 81]","[81, 81]","[81, 81]","[81, 81]",6,car4.png,tool2.png,tool1.png,music7.png,car8.png,tool3.png,animal6.png,car1.png,298,298,-298,-298,298,298,-298,-298,-85,85,-85,85,316,-316,316,-316,"[81, 81]","[81, 81]","[81, 81]","[81, 81]","[81, 81]","[81, 81]","[81, 81]","[81, 81]",,,,,0,71,71,311,,,,,,,,,,,,,,,,,,,,,,,375.3951588002965,None,375.3951588002965,None,375.3951588002965,None,375.6046838001348,None,376.00977440038696,None,376.00977440038696,None,376.00977440038696,None,376.4215487004258,None,,,,,,,,,,,,,,,,,,,,,377.45856739999726,None,p,0.5816478002816439,377.45856739999726,None,377.45856739999726,None,377.45856739999726,None,377.45856739999726,None,377.45856739999726,None,377.45856739999726,None,377.45856739999726,None,377.45856739999726,None,377.45856739999726,None,377.45856739999726,None,377.45856739999726,None,377.45856739999726,None,377.45856739999726,None,,,,,,,,,,,,,frol_pilot,001,2021_Sep_09_1514,shapka,2021.1.4,None,
2,5,pre,right,right.png,right.png,bas,Чашки,Шашки,tableware5.png,music10.png,car2.png,animal3.png,298,298,-298,-298,316,-316,316,-316,"[200, 0]","[-200, 0]","[81, 81]","[81, 81]","[81, 81]","[81, 81]",2,None,None,None,None,None,None,None,None,298,298,-298,-298,298,298,-298,-298,-85,85,-85,85,-200,200,-200,200,"[81, 81]","[81, 81]","[81, 81]","[81, 81]","[81, 81]","[81, 81]","[81, 81]","[81, 81]",,,,,0,72,72,283,,,,,,,,,,,,,,,,,,,,,,,378.095214900095,None,378.095214900095,None,378.095214900095,None,378.30493270000443,None,378.70766350021586,None,378.70766350021586,None,378.70766350021586,None,379.12172779999673,None,,,,,,,,,,,,,,,,,,,,,380.13569000037387,None,p,0.5046236999332905,380.13569000037387,None,380.13569000037387,None,380.13569000037387,None,380.13569000037387,None,380.13569000037387,None,380.13569000037387,None,380.13569000037387,None,380.13569000037387,None,380.13569000037387,None,380.13569000037387,None,380.13569000037387,None,380.13569000037387,None,380.13569000037387,None,,,,,,,,,,,,,frol_pilot,001,2021_Sep_09_1514,shapka,2021.1.4,None,
1,7,pre,left,left.png,left.png,bas,Яблоки,Пряники,fruit4.png,tool6.png,tool5.png,animal2.png,-298,-298,298,298,-85,85,-85,85,"[-200, 0]","[200, 0]","[81, 81]","[81, 81]","[81, 81]","[81, 81]",4,car8.png,animal7.png,car1.png,tool4.png,None,None,None,None,-298,-298,298,298,-298,-298,298,298,-316,316,-316,316,200,-200,200,-200,"[81, 81]","[81, 81]","[81, 81]","[81, 81]","[81, 81]","[81, 81]","[81, 81]","[81, 81]",,,,,0,73,73,203,,,,,,,,,,,,,,,,,,,,,,,380.69321810035035,None,380.69321810035035,None,380.69321810035035,None,380.90508620021865,None,381.3100473000668,None,381.3100473000668,None,381.3100473000668,None,381.7218103003688,None,,,,,,,,,,,,,,,,,,,,,382.74948220001534,None,p,0.434986500069499,382.74948220001534,None,382.74948220001534,None,382.74948220001534,None,382.74948220001534,None,382.74948220001534,None,382.74948220001534,None,382.74948220001534,None,382.74948220001534,None,382.74948220001534,None,382.74948220001534,None,382.74948220001534,None,382.74948220001534,None,382.74948220001534,None,,,,,,,,,,,,,frol_pilot,001,2021_Sep_09_1514,shapka,2021.1.4,None,
1,10,abs,left,left.png,left.png,non,Яблоки,Пряники,animal4.png,animal7.png,tool5.png,music3.png,-298,-298,298,298,316,-316,316,-316,"[-200, 0]","[200, 0]","[81, 81]","[81, 81]","[81, 81]","[81, 81]",6,animal8.png,animal10.png,car9.png,animal1.png,music4.png,animal2.png,car6.png,music2.png,-298,-298,298,298,-298,-298,298,298,85,-85,85,-85,200,-200,200,-200,"[81, 81]","[81, 81]","[81, 81]","[81, 81]","[81, 81]","[81, 81]","[81, 81]","[81, 81]",,,,,0,74,74,50,,,,,,,,,,,,,,,,,,,,,,,383.22866840008646,None,383.22866840008646,None,383.22866840008646,None,383.43865550030023,None,383.84217240009457,None,383.84217240009457,None,383.84217240009457,None,384.25527700036764,None,,,,,,,,,,,,,,,,,,,,,385.2837339001708,None,a,0.8125881999731064,385.2837339001708,None,385.2837339001708,None,385.2837339001708,None,385.2837339001708,None,385.2837339001708,None,385.2837339001708,None,385.2837339001708,None,385.2837339001708,None,385.2837339001708,None,385.2837339001708,None,385.2837339001708,None,385.2837339001708,None,385.2837339001708,None,,,,,,,,,,,,,frol_pilot,001,2021_Sep_09_1514,shapka,2021.1.4,None,
1,9,pre,left,left.png,left.png,bas,Стулья,Брусья,furniture2.png,car2.png,tool1.png,tool5.png,-298,-298,298,298,85,-85,85,-85,"[-200, 0]","[200, 0]","[81, 81]","[81, 81]","[81, 81]","[81, 81]",6,music7.png,car6.png,tool3.png,tool8.png,animal4.png,music1.png,car10.png,animal9.png,-298,-298,298,298,-298,-298,298,298,-316,316,-316,316,200,-200,200,-200,"[81, 81]","[81, 81]","[81, 81]","[81, 81]","[81, 81]","[81, 81]","[81, 81]","[81, 81]",,,,,0,75,75,155,,,,,,,,,,,,,,,,,,,,,,,386.14723720028996,None,386.14723720028996,None,386.14723720028996,None,386.3553281002678,None,386.76139320014045,None,386.76139320014045,None,386.76139320014045,None,387.1720686000772,None,,,,,,,,,,,,,,,,,,,,,388.2117283004336,None,p,0.42877949960529804,388.2117283004336,None,388.2117283004336,None,388.2117283004336,None,388.2117283004336,None,388.2117283004336,None,388.2117283004336,None,388.2117283004336,None,388.2117283004336,None,388.2117283004336,None,388.2117283004336,None,388.2117283004336,None,388.2117283004336,None,388.2117283004336,None,,,,,,,,,,,,,frol_pilot,001,2021_Sep_09_1514,shapka,2021.1.4,None,
2,7,pre,right,right.png,right.png,bas,Рубашки,Барашки,clothes2.png,animal3.png,car1.png,music6.png,298,298,-298,-298,-316,316,-316,316,"[200, 0]","[-200, 0]","[81, 81]","[81, 81]","[81, 81]","[81, 81]",4,music2.png,tool4.png,tool1.png,animal9.png,None,None,None,None,298,298,-298,-298,298,298,-298,-298,-85,85,-85,85,200,-200,200,-200,"[81, 81]","[81, 81]","[81, 81]","[81, 81]","[81, 81]","[81, 81]","[81, 81]","[81, 81]",,,,,0,76,76,234,,,,,,,,,,,,,,,,,,,,,,,388.69623730005696,None,388.69623730005696,None,388.69623730005696,None,388.90555450040847,None,389.3104061000049,None,389.3104061000049,None,389.3104061000049,None,389.7222405001521,None,,,,,,,,,,,,,,,,,,,,,390.74493180029094,None,p,0.5034628002904356,390.74493180029094,None,390.74493180029094,None,390.74493180029094,None,390.74493180029094,None,390.74493180029094,None,390.74493180029094,None,390.74493180029094,None,390.74493180029094,None,390.74493180029094,None,390.74493180029094,None,390.74493180029094,None,390.74493180029094,None,390.74493180029094,None,,,,,,,,,,,,,frol_pilot,001,2021_Sep_09_1514,shapka,2021.1.4,None,
2,7,pre,right,right.png,right.png,bas,Чашки,Шашки,tableware3.png,tool7.png,car9.png,tool5.png,298,298,-298,-298,-85,85,-85,85,"[200, 0]","[-200, 0]","[81, 81]","[81, 81]","[81, 81]","[81, 81]",4,animal3.png,music2.png,music1.png,tool6.png,None,None,None,None,298,298,-298,-298,298,298,-298,-298,-316,316,-316,316,200,-200,200,-200,"[81, 81]","[81, 81]","[81, 81]","[81, 81]","[81, 81]","[81, 81]","[81, 81]","[81, 81]",,,,,0,77,77,301,,,,,,,,,,,,,,,,,,,,,,,391.29646980017424,None,391.29646980017424,None,391.29646980017424,None,391.50569090014324,None,391.9104836001061,None,391.9104836001061,None,391.9104836001061,None,392.3223816002719,None,,,,,,,,,,,,,,,,,,,,,393.3478367002681,None,p,0.47649719985201955,393.3478367002681,None,393.3478367002681,None,393.3478367002681,None,393.3478367002681,None,393.3478367002681,None,393.3478367002681,None,393.3478367002681,None,393.3478367002681,None,393.3478367002681,None,393.3478367002681,None,393.3478367002681,None,393.3478367002681,None,393.3478367002681,None,,,,,,,,,,,,,frol_pilot,001,2021_Sep_09_1514,shapka,2021.1.4,None,
