arr_code,srch_code,type,semi_field,arr_1,arr_2,cat,target,target_2,s1,s2,s3,s4,x1,x2,x3,x4,y1,y2,y3,y4,postr,postr_2,ss1,ss2,ss3,ss4,set_size,s5,s6,s7,s8,s9,s10,s11,s12,x5,x6,x7,x8,x9,x10,x11,x12,y5,y6,y7,y8,y9,y10,y11,y12,ss5,ss6,ss7,ss8,ss9,ss10,ss11,ss12,train.thisRepN,train.thisTrialN,train.thisN,train.thisIndex,block_bas.thisRepN,block_bas.thisTrialN,block_bas.thisN,block_bas.thisIndex,block_sup.thisRepN,block_sup.thisTrialN,block_sup.thisN,block_sup.thisIndex,instruction.started,instruction.stopped,key_resp.keys,key_resp.rt,key_resp.started,key_resp.stopped,polygon.started,polygon.stopped,key_resp_2.keys,key_resp_2.rt,key_resp_2.started,key_resp_2.stopped,text.started,text.stopped,key_resp_3.keys,key_resp_3.rt,key_resp_3.started,key_resp_3.stopped,polygon_2.started,polygon_2.stopped,arr1.started,arr1.stopped,arr2.started,arr2.stopped,polygon_3.started,polygon_3.stopped,polygon_4.started,polygon_4.stopped,word1.started,word1.stopped,word2.started,word2.stopped,polygon_5.started,polygon_5.stopped,polygon_6.started,polygon_6.stopped,key_resp_4.keys,key_resp_4.started,key_resp_4.stopped,s_1.started,s_1.stopped,s_2.started,s_2.stopped,s_3.started,s_3.stopped,s_4.started,s_4.stopped,key_resp_4.rt,text_3.started,text_3.stopped,key_resp_5.keys,key_resp_5.rt,key_resp_5.started,key_resp_5.stopped,polygon_8.started,polygon_8.stopped,key_resp_6.keys,key_resp_6.rt,key_resp_6.started,key_resp_6.stopped,sti1.started,sti1.stopped,sti2.started,sti2.stopped,sti3.started,sti3.stopped,sti4.started,sti4.stopped,sti5.started,sti5.stopped,sti6.started,sti6.stopped,sti7.started,sti7.stopped,sti8.started,sti8.stopped,sti9.started,sti9.stopped,sti10.started,sti10.stopped,sti11.started,sti11.stopped,sti12.started,sti12.stopped,text_2.started,text_2.stopped,key_resp_7.keys,key_resp_7.rt,key_resp_7.started,key_resp_7.stopped,participant,session,date,expName,psychopyVersion,frameRate,
,,,,,,,,,,,,,,,,,,,,,,,,,,,,,,,,,,,,,,,,,,,,,,,,,,,,,,,,,,,,,,,,,,,,,,,,13.413550800003577,None,space,133.24729229998775,13.413550800003577,None,,,,,,,,,,,,,,,,,,,,,,,,,,,,,,,,,,,,,,,,,,,,,,,,,,,,,,,,,,,,,,,,,,,,,,,,,,,,,,,,,,,,,m_pilot,001,2021_Sep_22_1803,shapka,2021.1.4,59.996928161825835,
,,,,,,,,,,,,,,,,,,,,,,,,,,,,,,,,,,,,,,,,,,,,,,,,,,,,,,,,,,,,,,,,,,,,,,,,,,,,,,146.68270430003759,None,right,5.060331699962262,146.68270430003759,None,,,,,,,,,,,,,,,,,,,,,,,,,,,,,,,,,,,,,,,,,,,,,,,,,,,,,,,,,,,,,,,,,,,,,,,,,,,,,,,m_pilot,001,2021_Sep_22_1803,shapka,2021.1.4,59.996928161825835,
,,,,,,,,,,,,,,,,,,,,,,,,,,,,,,,,,,,,,,,,,,,,,,,,,,,,,,,,,,,,,,,,,,,,,,,,,,,,,,,,,,,,151.7660796000273,None,space,5.894638900004793,151.7660796000273,None,,,,,,,,,,,,,,,,,,,,,,,,,,,,,,,,,,,,,,,,,,,,,,,,,,,,,,,,,,,,,,,,,,,,,,,,,m_pilot,001,2021_Sep_22_1803,shapka,2021.1.4,59.996928161825835,
2,5,pre,right,right.png,right.png,bas,Чашки,Шашки,tableware1.png,tool1.png,music5.png,music1.png,298,298,-298,-298,-316,316,-316,316,"[200, 0]","[-200, 0]","[104, 104]","[104, 104]","[104, 104]","[104, 104]",,,,,,,,,,,,,,,,,,,,,,,,,,,,,,,,,,0,0,0,12,,,,,,,,,,,,,,,,,,,,,,,,,,,157.8071053000167,None,157.8071053000167,None,157.8071053000167,None,157.89958490000572,None,158.3114871000289,None,158.3114871000289,None,158.3114871000289,None,158.6996811000281,None,159.71528270002455,None,None,159.71528270002455,None,159.71528270002455,None,159.71528270002455,None,159.71528270002455,None,159.71528270002455,None,,,,,,,,,,,,,,,,,,,,,,,,,,,,,,,,,,,,,,,,,,,,m_pilot,001,2021_Sep_22_1803,shapka,2021.1.4,59.996928161825835,
2,5,pre,right,right.png,right.png,sup,Одежда,Невежда,clothes3.png,car1.png,tool1.png,car4.png,298,298,-298,-298,-316,316,-316,316,"[200, 0]","[-200, 0]","[104, 104]","[104, 104]","[104, 104]","[104, 104]",,,,,,,,,,,,,,,,,,,,,,,,,,,,,,,,,,0,1,1,15,,,,,,,,,,,,,,,,,,,,,,,,,,,163.73341760004405,None,163.73341760004405,None,163.73341760004405,None,163.90003420005087,None,164.30928060004953,None,164.30928060004953,None,164.30928060004953,None,164.6999072000035,None,165.718564800045,None,p,165.718564800045,None,165.718564800045,None,165.718564800045,None,165.718564800045,None,165.718564800045,None,2.8141534999595024,,,,,,,,,,,,,,,,,,,,,,,,,,,,,,,,,,,,,,,,,,,m_pilot,001,2021_Sep_22_1803,shapka,2021.1.4,59.996928161825835,
2,6,abs,right,right.png,right.png,bas,Яблоки,Пряники,animal4.png,music3.png,tool4.png,tool6.png,298,298,-298,-298,316,-316,316,-316,"[200, 0]","[-200, 0]","[104, 104]","[104, 104]","[104, 104]","[104, 104]",,,,,,,,,,,,,,,,,,,,,,,,,,,,,,,,,,0,2,2,8,,,,,,,,,,,,,,,,,,,,,,,,,,,168.59122420003405,None,168.59122420003405,None,168.59122420003405,None,168.8000687000458,None,169.21123670000816,None,169.21123670000816,None,169.21123670000816,None,169.61677190003684,None,170.62833480001427,None,a,170.62833480001427,None,170.62833480001427,None,170.62833480001427,None,170.62833480001427,None,170.62833480001427,None,1.528417800029274,,,,,,,,,,,,,,,,,,,,,,,,,,,,,,,,,,,,,,,,,,,m_pilot,001,2021_Sep_22_1803,shapka,2021.1.4,59.996928161825835,
1,5,pre,left,left.png,left.png,bas,Чашки,Шашки,tableware3.png,car2.png,animal2.png,music3.png,-298,-298,298,298,-316,316,-316,316,"[-200, 0]","[200, 0]","[104, 104]","[104, 104]","[104, 104]","[104, 104]",,,,,,,,,,,,,,,,,,,,,,,,,,,,,,,,,,0,3,3,4,,,,,,,,,,,,,,,,,,,,,,,,,,,172.22060400003102,None,172.22060400003102,None,172.22060400003102,None,172.43365880002966,None,172.8382852000068,None,172.8382852000068,None,172.8382852000068,None,173.2503886000486,None,174.262488700042,None,p,174.262488700042,None,174.262488700042,None,174.262488700042,None,174.262488700042,None,174.262488700042,None,2.326407000015024,,,,,,,,,,,,,,,,,,,,,,,,,,,,,,,,,,,,,,,,,,,m_pilot,001,2021_Sep_22_1803,shapka,2021.1.4,59.996928161825835,
1,5,pre,left,left.png,left.png,sup,Посуда,Валюта,tableware4.png,animal1.png,tool2.png,animal2.png,-298,-298,298,298,-316,316,-316,316,"[-200, 0]","[200, 0]","[104, 104]","[104, 104]","[104, 104]","[104, 104]",,,,,,,,,,,,,,,,,,,,,,,,,,,,,,,,,,0,4,4,5,,,,,,,,,,,,,,,,,,,,,,,,,,,176.65678320004372,None,176.65678320004372,None,176.65678320004372,None,176.86723270005314,None,177.27861209999537,None,177.27861209999537,None,177.27861209999537,None,177.683742800029,None,178.69537710002623,None,None,178.69537710002623,None,178.69537710002623,None,178.69537710002623,None,178.69537710002623,None,178.69537710002623,None,,,,,,,,,,,,,,,,,,,,,,,,,,,,,,,,,,,,,,,,,,,,m_pilot,001,2021_Sep_22_1803,shapka,2021.1.4,59.996928161825835,
2,5,pre,right,right.png,right.png,sup,Мебель,Стебель,furniture5.png,music1.png,car4.png,tool5.png,298,298,-298,-298,316,-316,316,-316,"[200, 0]","[-200, 0]","[104, 104]","[104, 104]","[104, 104]","[104, 104]",,,,,,,,,,,,,,,,,,,,,,,,,,,,,,,,,,0,5,5,11,,,,,,,,,,,,,,,,,,,,,,,,,,,182.73260720004328,None,182.73260720004328,None,182.73260720004328,None,182.93415010004537,None,183.3434729000437,None,183.3434729000437,None,183.3434729000437,None,183.7507343000034,None,184.76349350000964,None,p,184.76349350000964,None,184.76349350000964,None,184.76349350000964,None,184.76349350000964,None,184.76349350000964,None,1.8172711999504827,,,,,,,,,,,,,,,,,,,,,,,,,,,,,,,,,,,,,,,,,,,m_pilot,001,2021_Sep_22_1803,shapka,2021.1.4,59.996928161825835,
2,5,pre,right,right.png,right.png,bas,Рубашки,Барашки,clothes5.png,music4.png,animal6.png,tool1.png,298,298,-298,-298,-316,316,-316,316,"[200, 0]","[-200, 0]","[104, 104]","[104, 104]","[104, 104]","[104, 104]",,,,,,,,,,,,,,,,,,,,,,,,,,,,,,,,,,0,6,6,14,,,,,,,,,,,,,,,,,,,,,,,,,,,186.63610340002924,None,186.63610340002924,None,186.63610340002924,None,186.8509558000369,None,187.25984800001606,None,187.25984800001606,None,187.25984800001606,None,187.66759030002868,None,188.677915200009,None,p,188.677915200009,None,188.677915200009,None,188.677915200009,None,188.677915200009,None,188.677915200009,None,3.5988093999912962,,,,,,,,,,,,,,,,,,,,,,,,,,,,,,,,,,,,,,,,,,,m_pilot,001,2021_Sep_22_1803,shapka,2021.1.4,59.996928161825835,
2,5,pre,right,right.png,right.png,bas,Стулья,Брусья,furniture4.png,music5.png,music3.png,tool4.png,298,298,-298,-298,316,-316,316,-316,"[200, 0]","[-200, 0]","[104, 104]","[104, 104]","[104, 104]","[104, 104]",,,,,,,,,,,,,,,,,,,,,,,,,,,,,,,,,,0,7,7,10,,,,,,,,,,,,,,,,,,,,,,,,,,,192.3403757000342,None,192.3403757000342,None,192.3403757000342,None,192.55113110004459,None,192.9560002000071,None,192.9560002000071,None,192.9560002000071,None,193.36778990004677,None,194.38682320003863,None,p,194.38682320003863,None,194.38682320003863,None,194.38682320003863,None,194.38682320003863,None,194.38682320003863,None,1.8658052000100724,,,,,,,,,,,,,,,,,,,,,,,,,,,,,,,,,,,,,,,,,,,m_pilot,001,2021_Sep_22_1803,shapka,2021.1.4,59.996928161825835,
1,5,pre,left,left.png,left.png,sup,Одежда,Невежда,clothes2.png,animal6.png,tool6.png,tool1.png,-298,-298,298,298,-316,316,-316,316,"[-200, 0]","[200, 0]","[104, 104]","[104, 104]","[104, 104]","[104, 104]",,,,,,,,,,,,,,,,,,,,,,,,,,,,,,,,,,0,8,8,7,,,,,,,,,,,,,,,,,,,,,,,,,,,196.31104190001497,None,196.31104190001497,None,196.31104190001497,None,196.5179675000254,None,196.92439670005115,None,196.92439670005115,None,196.92439670005115,None,197.33471590001136,None,198.34571330004837,None,p,198.34571330004837,None,198.34571330004837,None,198.34571330004837,None,198.34571330004837,None,198.34571330004837,None,3.9149955000029877,,,,,,,,,,,,,,,,,,,,,,,,,,,,,,,,,,,,,,,,,,,m_pilot,001,2021_Sep_22_1803,shapka,2021.1.4,59.996928161825835,
1,6,abs,left,left.png,left.png,sup,Фрукты,Бухты,music3.png,tool2.png,animal3.png,car2.png,-298,-298,298,298,316,-316,316,-316,"[-200, 0]","[200, 0]","[104, 104]","[104, 104]","[104, 104]","[104, 104]",,,,,,,,,,,,,,,,,,,,,,,,,,,,,,,,,,0,9,9,1,,,,,,,,,,,,,,,,,,,,,,,,,,,202.31661630002782,None,202.31661630002782,None,202.31661630002782,None,202.5182555000065,None,202.9278552000178,None,202.9278552000178,None,202.9278552000178,None,203.33494230004726,None,204.35357790003764,None,a,204.35357790003764,None,204.35357790003764,None,204.35357790003764,None,204.35357790003764,None,204.35357790003764,None,3.139102399989497,,,,,,,,,,,,,,,,,,,,,,,,,,,,,,,,,,,,,,,,,,,m_pilot,001,2021_Sep_22_1803,shapka,2021.1.4,59.996928161825835,
1,5,pre,left,left.png,left.png,sup,Мебель,Стебель,furniture2.png,tool5.png,music1.png,animal6.png,-298,-298,298,298,316,-316,316,-316,"[-200, 0]","[200, 0]","[104, 104]","[104, 104]","[104, 104]","[104, 104]",,,,,,,,,,,,,,,,,,,,,,,,,,,,,,,,,,0,10,10,3,,,,,,,,,,,,,,,,,,,,,,,,,,,207.55683670000872,None,207.55683670000872,None,207.55683670000872,None,207.76858920004452,None,208.17317660001572,None,208.17317660001572,None,208.17317660001572,None,208.58517730003223,None,209.59800749999704,None,p,209.59800749999704,None,209.59800749999704,None,209.59800749999704,None,209.59800749999704,None,209.59800749999704,None,1.3266236000345089,,,,,,,,,,,,,,,,,,,,,,,,,,,,,,,,,,,,,,,,,,,m_pilot,001,2021_Sep_22_1803,shapka,2021.1.4,59.996928161825835,
1,5,pre,left,left.png,left.png,bas,Стулья,Брусья,furniture1.png,car4.png,tool5.png,tool2.png,-298,-298,298,298,316,-316,316,-316,"[-200, 0]","[200, 0]","[104, 104]","[104, 104]","[104, 104]","[104, 104]",,,,,,,,,,,,,,,,,,,,,,,,,,,,,,,,,,0,11,11,2,,,,,,,,,,,,,,,,,,,,,,,,,,,210.98349450004753,None,210.98349450004753,None,210.98349450004753,None,211.18527760001598,None,211.59141590003856,None,211.59141590003856,None,211.59141590003856,None,212.00196730002062,None,213.02190500003053,None,p,213.02190500003053,None,213.02190500003053,None,213.02190500003053,None,213.02190500003053,None,213.02190500003053,None,1.5587797000189312,,,,,,,,,,,,,,,,,,,,,,,,,,,,,,,,,,,,,,,,,,,m_pilot,001,2021_Sep_22_1803,shapka,2021.1.4,59.996928161825835,
2,5,pre,right,right.png,right.png,sup,Посуда,Валюта,tableware2.png,animal2.png,music2.png,animal3.png,298,298,-298,-298,-316,316,-316,316,"[200, 0]","[-200, 0]","[104, 104]","[104, 104]","[104, 104]","[104, 104]",,,,,,,,,,,,,,,,,,,,,,,,,,,,,,,,,,0,12,12,13,,,,,,,,,,,,,,,,,,,,,,,,,,,214.64234820002457,None,214.64234820002457,None,214.64234820002457,None,214.85211430001073,None,215.25831590004964,None,215.25831590004964,None,215.25831590004964,None,215.66884820000269,None,216.6927118000458,None,p,216.6927118000458,None,216.6927118000458,None,216.6927118000458,None,216.6927118000458,None,216.6927118000458,None,0.8879806000040844,,,,,,,,,,,,,,,,,,,,,,,,,,,,,,,,,,,,,,,,,,,m_pilot,001,2021_Sep_22_1803,shapka,2021.1.4,59.996928161825835,
2,6,abs,right,right.png,right.png,sup,Фрукты,Бухты,car8.png,music2.png,car2.png,car1.png,298,298,-298,-298,316,-316,316,-316,"[200, 0]","[-200, 0]","[104, 104]","[104, 104]","[104, 104]","[104, 104]",,,,,,,,,,,,,,,,,,,,,,,,,,,,,,,,,,0,13,13,9,,,,,,,,,,,,,,,,,,,,,,,,,,,217.64478640002199,None,217.64478640002199,None,217.64478640002199,None,217.85235200001625,None,218.25693860003958,None,218.25693860003958,None,218.25693860003958,None,218.66903849999653,None,219.6809087000438,None,a,219.6809087000438,None,219.6809087000438,None,219.6809087000438,None,219.6809087000438,None,219.6809087000438,None,1.2678016000427306,,,,,,,,,,,,,,,,,,,,,,,,,,,,,,,,,,,,,,,,,,,m_pilot,001,2021_Sep_22_1803,shapka,2021.1.4,59.996928161825835,
1,6,abs,left,left.png,left.png,bas,Яблоки,Пряники,tool1.png,tool4.png,car1.png,animal1.png,-298,-298,298,298,316,-316,316,-316,"[-200, 0]","[200, 0]","[104, 104]","[104, 104]","[104, 104]","[104, 104]",,,,,,,,,,,,,,,,,,,,,,,,,,,,,,,,,,0,14,14,0,,,,,,,,,,,,,,,,,,,,,,,,,,,221.00463260000106,None,221.00463260000106,None,221.00463260000106,None,221.2190468000481,None,221.62515999999596,None,221.62515999999596,None,221.62515999999596,None,222.0357595999958,None,223.05651870003203,None,a,223.05651870003203,None,223.05651870003203,None,223.05651870003203,None,223.05651870003203,None,223.05651870003203,None,2.172149599995464,,,,,,,,,,,,,,,,,,,,,,,,,,,,,,,,,,,,,,,,,,,m_pilot,001,2021_Sep_22_1803,shapka,2021.1.4,59.996928161825835,
1,5,pre,left,left.png,left.png,bas,Рубашки,Барашки,clothes1.png,tool6.png,animal1.png,music2.png,-298,-298,298,298,-316,316,-316,316,"[-200, 0]","[200, 0]","[104, 104]","[104, 104]","[104, 104]","[104, 104]",,,,,,,,,,,,,,,,,,,,,,,,,,,,,,,,,,0,15,15,6,,,,,,,,,,,,,,,,,,,,,,,,,,,225.28157120000105,None,225.28157120000105,None,225.28157120000105,None,225.48590080003487,None,225.8903787000454,None,225.8903787000454,None,225.8903787000454,None,226.30237700004363,None,227.31919850001577,None,a,227.31919850001577,None,227.31919850001577,None,227.31919850001577,None,227.31919850001577,None,227.31919850001577,None,2.973514100012835,,,,,,,,,,,,,,,,,,,,,,,,,,,,,,,,,,,,,,,,,,,m_pilot,001,2021_Sep_22_1803,shapka,2021.1.4,59.996928161825835,
,,,,,,,,,,,,,,,,,,,,,,,,,,,,,,,,,,,,,,,,,,,,,,,,,,,,,,,,,,,,,,,,,,,,,,,,,,,,,,,,,,,,,,,,,,,,,,,,,,,,,,,,,,,,,,,,,,,,,,,,230.31955630000448,None,space,25.85290930001065,230.31955630000448,None,,,,,,,,,,,,,,,,,,,,,,,,,,,,,,,,,,,,,m_pilot,001,2021_Sep_22_1803,shapka,2021.1.4,59.996928161825835,
2,6,abs,right,right.png,right.png,non,Чашки,Шашки,car7.png,music9.png,music10.png,music1.png,298,298,-298,-298,316,-316,316,-316,"[200, 0]","[-200, 0]","[81, 81]","[81, 81]","[81, 81]","[81, 81]",2,None,None,None,None,None,None,None,None,298,298,-298,-298,298,298,-298,-298,-85,85,-85,85,-200,200,-200,200,"[81, 81]","[81, 81]","[81, 81]","[81, 81]","[81, 81]","[81, 81]","[81, 81]","[81, 81]",,,,,0,0,0,78,,,,,,,,,,,,,,,,,,,,,,,None,None,None,None,None,None,None,None,256.84931120002875,None,256.84931120002875,None,256.84931120002875,None,257.22069080005167,None,,,,,,,,,,,,,,,,,,,,,258.24337310000556,None,a,3.5294290999881923,258.24337310000556,None,258.24337310000556,None,258.24337310000556,None,258.24337310000556,None,258.24337310000556,None,258.24337310000556,None,258.24337310000556,None,258.24337310000556,None,258.24337310000556,None,258.24337310000556,None,258.24337310000556,None,258.24337310000556,None,258.24337310000556,None,,,,,,,m_pilot,001,2021_Sep_22_1803,shapka,2021.1.4,59.996928161825835,
2,5,pre,right,right.png,right.png,bas,Стулья,Брусья,furniture3.png,car2.png,animal9.png,tool10.png,298,298,-298,-298,316,-316,316,-316,"[200, 0]","[-200, 0]","[81, 81]","[81, 81]","[81, 81]","[81, 81]",2,None,None,None,None,None,None,None,None,298,298,-298,-298,298,298,-298,-298,85,-85,85,-85,200,-200,200,-200,"[81, 81]","[81, 81]","[81, 81]","[81, 81]","[81, 81]","[81, 81]","[81, 81]","[81, 81]",,,,,0,1,1,260,,,,,,,,,,,,,,,,,,,,,,,261.84339310001815,None,261.84339310001815,None,261.84339310001815,None,262.0543085000245,None,262.4590677000233,None,262.4590677000233,None,262.4590677000233,None,262.87098760000663,None,,,,,,,,,,,,,,,,,,,,,263.89375420002034,None,p,0.910849700041581,263.89375420002034,None,263.89375420002034,None,263.89375420002034,None,263.89375420002034,None,263.89375420002034,None,263.89375420002034,None,263.89375420002034,None,263.89375420002034,None,263.89375420002034,None,263.89375420002034,None,263.89375420002034,None,263.89375420002034,None,263.89375420002034,None,,,,,,,m_pilot,001,2021_Sep_22_1803,shapka,2021.1.4,59.996928161825835,
1,7,pre,left,left.png,left.png,bas,Чашки,Шашки,tableware3.png,tool4.png,car6.png,car3.png,-298,-298,298,298,85,-85,85,-85,"[-200, 0]","[200, 0]","[81, 81]","[81, 81]","[81, 81]","[81, 81]",4,music1.png,car10.png,music5.png,car8.png,None,None,None,None,-298,-298,298,298,-298,-298,298,298,-316,316,-316,316,200,-200,200,-200,"[81, 81]","[81, 81]","[81, 81]","[81, 81]","[81, 81]","[81, 81]","[81, 81]","[81, 81]",,,,,0,2,2,175,,,,,,,,,,,,,,,,,,,,,,,264.86308870004723,None,264.86308870004723,None,264.86308870004723,None,265.07155090000015,None,265.48491490003653,None,265.48491490003653,None,265.48491490003653,None,265.8875573000405,None,,,,,,,,,,,,,,,,,,,,,266.9137887000106,None,p,2.0508073000237346,266.9137887000106,None,266.9137887000106,None,266.9137887000106,None,266.9137887000106,None,266.9137887000106,None,266.9137887000106,None,266.9137887000106,None,266.9137887000106,None,266.9137887000106,None,266.9137887000106,None,266.9137887000106,None,266.9137887000106,None,266.9137887000106,None,,,,,,,m_pilot,001,2021_Sep_22_1803,shapka,2021.1.4,59.996928161825835,
1,9,pre,left,left.png,left.png,bas,Стулья,Брусья,furniture1.png,car7.png,car4.png,animal1.png,-298,-298,298,298,85,-85,85,-85,"[-200, 0]","[200, 0]","[81, 81]","[81, 81]","[81, 81]","[81, 81]",6,music5.png,car9.png,tool6.png,animal10.png,tool8.png,car1.png,music2.png,tool3.png,-298,-298,298,298,-298,-298,298,298,-316,316,-316,316,-200,200,-200,200,"[81, 81]","[81, 81]","[81, 81]","[81, 81]","[81, 81]","[81, 81]","[81, 81]","[81, 81]",,,,,0,3,3,154,,,,,,,,,,,,,,,,,,,,,,,269.01013650000095,None,269.01013650000095,None,269.01013650000095,None,269.2213006000384,None,269.63674400001764,None,269.63674400001764,None,269.63674400001764,None,270.03785670001525,None,,,,,,,,,,,,,,,,,,,,,271.0753719000495,None,p,1.4330486999824643,271.0753719000495,None,271.0753719000495,None,271.0753719000495,None,271.0753719000495,None,271.0753719000495,None,271.0753719000495,None,271.0753719000495,None,271.0753719000495,None,271.0753719000495,None,271.0753719000495,None,271.0753719000495,None,271.0753719000495,None,271.0753719000495,None,,,,,,,m_pilot,001,2021_Sep_22_1803,shapka,2021.1.4,59.996928161825835,
1,9,pre,left,left.png,left.png,bas,Стулья,Брусья,furniture2.png,tool5.png,tool6.png,music10.png,-298,-298,298,298,85,-85,85,-85,"[-200, 0]","[200, 0]","[81, 81]","[81, 81]","[81, 81]","[81, 81]",6,tool8.png,music1.png,animal6.png,music7.png,music9.png,tool3.png,music2.png,music4.png,-298,-298,298,298,-298,-298,298,298,-316,316,-316,316,-200,200,-200,200,"[81, 81]","[81, 81]","[81, 81]","[81, 81]","[81, 81]","[81, 81]","[81, 81]","[81, 81]",,,,,0,4,4,161,,,,,,,,,,,,,,,,,,,,,,,272.5585863000015,None,272.5585863000015,None,272.5585863000015,None,272.7714057000121,None,273.17286109999986,None,273.17286109999986,None,273.17286109999986,None,273.5881460000528,None,,,,,,,,,,,,,,,,,,,,,274.6172206000192,None,p,1.1475728999939747,274.6172206000192,None,274.6172206000192,None,274.6172206000192,None,274.6172206000192,None,274.6172206000192,None,274.6172206000192,None,274.6172206000192,None,274.6172206000192,None,274.6172206000192,None,274.6172206000192,None,274.6172206000192,None,274.6172206000192,None,274.6172206000192,None,,,,,,,m_pilot,001,2021_Sep_22_1803,shapka,2021.1.4,59.996928161825835,
1,5,pre,left,left.png,left.png,bas,Яблоки,Пряники,fruit2.png,animal3.png,tool7.png,music6.png,-298,-298,298,298,316,-316,316,-316,"[-200, 0]","[200, 0]","[81, 81]","[81, 81]","[81, 81]","[81, 81]",2,None,None,None,None,None,None,None,None,-298,-298,298,298,-298,-298,298,298,85,-85,85,-85,200,-200,200,-200,"[81, 81]","[81, 81]","[81, 81]","[81, 81]","[81, 81]","[81, 81]","[81, 81]","[81, 81]",,,,,0,5,5,200,,,,,,,,,,,,,,,,,,,,,,,275.810634100053,None,275.810634100053,None,275.810634100053,None,276.02155930001754,None,276.425919900008,None,276.425919900008,None,276.425919900008,None,276.83812080003554,None,,,,,,,,,,,,,,,,,,,,,277.8663427000283,None,p,1.1462472000275739,277.8663427000283,None,277.8663427000283,None,277.8663427000283,None,277.8663427000283,None,277.8663427000283,None,277.8663427000283,None,277.8663427000283,None,277.8663427000283,None,277.8663427000283,None,277.8663427000283,None,277.8663427000283,None,277.8663427000283,None,277.8663427000283,None,,,,,,,m_pilot,001,2021_Sep_22_1803,shapka,2021.1.4,59.996928161825835,
1,5,pre,left,left.png,left.png,bas,Чашки,Шашки,tableware5.png,music1.png,music8.png,tool7.png,-298,-298,298,298,316,-316,316,-316,"[-200, 0]","[200, 0]","[81, 81]","[81, 81]","[81, 81]","[81, 81]",2,None,None,None,None,None,None,None,None,-298,-298,298,298,-298,-298,298,298,-85,85,-85,85,-200,200,-200,200,"[81, 81]","[81, 81]","[81, 81]","[81, 81]","[81, 81]","[81, 81]","[81, 81]","[81, 81]",,,,,0,6,6,163,,,,,,,,,,,,,,,,,,,,,,,279.0791147000273,None,279.0791147000273,None,279.0791147000273,None,279.2888270000112,None,279.7009796000202,None,279.7009796000202,None,279.7009796000202,None,280.1049769000383,None,,,,,,,,,,,,,,,,,,,,,281.12078210001346,None,p,0.9798482999904081,281.12078210001346,None,281.12078210001346,None,281.12078210001346,None,281.12078210001346,None,281.12078210001346,None,281.12078210001346,None,281.12078210001346,None,281.12078210001346,None,281.12078210001346,None,281.12078210001346,None,281.12078210001346,None,281.12078210001346,None,281.12078210001346,None,,,,,,,m_pilot,001,2021_Sep_22_1803,shapka,2021.1.4,59.996928161825835,
1,6,abs,left,left.png,left.png,non,Рубашки,Барашки,car8.png,music3.png,music10.png,car5.png,-298,-298,298,298,-316,316,-316,316,"[-200, 0]","[200, 0]","[81, 81]","[81, 81]","[81, 81]","[81, 81]",2,None,None,None,None,None,None,None,None,-298,-298,298,298,-298,-298,298,298,-85,85,-85,85,-200,200,-200,200,"[81, 81]","[81, 81]","[81, 81]","[81, 81]","[81, 81]","[81, 81]","[81, 81]","[81, 81]",,,,,0,7,7,2,,,,,,,,,,,,,,,,,,,,,,,282.1546542000142,None,282.1546542000142,None,282.1546542000142,None,282.35517240001354,None,282.75955080002313,None,282.75955080002313,None,282.75955080002313,None,283.17185830004746,None,,,,,,,,,,,,,,,,,,,,,284.1874560000142,None,a,1.0491750999935903,284.1874560000142,None,284.1874560000142,None,284.1874560000142,None,284.1874560000142,None,284.1874560000142,None,284.1874560000142,None,284.1874560000142,None,284.1874560000142,None,284.1874560000142,None,284.1874560000142,None,284.1874560000142,None,284.1874560000142,None,284.1874560000142,None,,,,,,,m_pilot,001,2021_Sep_22_1803,shapka,2021.1.4,59.996928161825835,
1,9,pre,left,left.png,left.png,bas,Стулья,Брусья,furniture2.png,car2.png,tool1.png,tool5.png,-298,-298,298,298,85,-85,85,-85,"[-200, 0]","[200, 0]","[81, 81]","[81, 81]","[81, 81]","[81, 81]",6,music7.png,car6.png,tool3.png,tool8.png,animal4.png,music1.png,car10.png,animal9.png,-298,-298,298,298,-298,-298,298,298,-316,316,-316,316,200,-200,200,-200,"[81, 81]","[81, 81]","[81, 81]","[81, 81]","[81, 81]","[81, 81]","[81, 81]","[81, 81]",,,,,0,8,8,155,,,,,,,,,,,,,,,,,,,,,,,285.2924860000494,None,285.2924860000494,None,285.2924860000494,None,285.50533509999514,None,285.90971010003705,None,285.90971010003705,None,285.90971010003705,None,286.3220085000503,None,,,,,,,,,,,,,,,,,,,,,287.35943390004104,None,p,0.9572445999947377,287.35943390004104,None,287.35943390004104,None,287.35943390004104,None,287.35943390004104,None,287.35943390004104,None,287.35943390004104,None,287.35943390004104,None,287.35943390004104,None,287.35943390004104,None,287.35943390004104,None,287.35943390004104,None,287.35943390004104,None,287.35943390004104,None,,,,,,,m_pilot,001,2021_Sep_22_1803,shapka,2021.1.4,59.996928161825835,
2,9,pre,right,right.png,right.png,bas,Рубашки,Барашки,clothes5.png,tool2.png,animal10.png,tool6.png,298,298,-298,-298,-85,85,-85,85,"[200, 0]","[-200, 0]","[81, 81]","[81, 81]","[81, 81]","[81, 81]",6,tool9.png,animal7.png,car3.png,car8.png,animal4.png,music1.png,music5.png,car1.png,298,298,-298,-298,298,298,-298,-298,316,-316,316,-316,-200,200,-200,200,"[81, 81]","[81, 81]","[81, 81]","[81, 81]","[81, 81]","[81, 81]","[81, 81]","[81, 81]",,,,,0,9,9,251,,,,,,,,,,,,,,,,,,,,,,,288.36268940003356,None,288.36268940003356,None,288.36268940003356,None,288.57193360000383,None,288.97787280002376,None,288.97787280002376,None,288.97787280002376,None,289.3887312000152,None,,,,,,,,,,,,,,,,,,,,,290.43332040001405,None,p,1.3072538999840617,290.43332040001405,None,290.43332040001405,None,290.43332040001405,None,290.43332040001405,None,290.43332040001405,None,290.43332040001405,None,290.43332040001405,None,290.43332040001405,None,290.43332040001405,None,290.43332040001405,None,290.43332040001405,None,290.43332040001405,None,290.43332040001405,None,,,,,,,m_pilot,001,2021_Sep_22_1803,shapka,2021.1.4,59.996928161825835,
1,7,pre,left,left.png,left.png,bas,Рубашки,Барашки,clothes3.png,music7.png,animal4.png,tool1.png,-298,-298,298,298,-316,316,-316,316,"[-200, 0]","[200, 0]","[81, 81]","[81, 81]","[81, 81]","[81, 81]",4,animal5.png,car2.png,tool3.png,music6.png,None,None,None,None,-298,-298,298,298,-298,-298,298,298,-85,85,-85,85,200,-200,200,-200,"[81, 81]","[81, 81]","[81, 81]","[81, 81]","[81, 81]","[81, 81]","[81, 81]","[81, 81]",,,,,0,10,10,115,,,,,,,,,,,,,,,,,,,,,,,291.7927297000424,None,291.7927297000424,None,291.7927297000424,None,292.0055667000124,None,292.40678000001935,None,292.40678000001935,None,292.40678000001935,None,292.82224460004363,None,,,,,,,,,,,,,,,,,,,,,293.84395510004833,None,p,1.7208264999790117,293.84395510004833,None,293.84395510004833,None,293.84395510004833,None,293.84395510004833,None,293.84395510004833,None,293.84395510004833,None,293.84395510004833,None,293.84395510004833,None,293.84395510004833,None,293.84395510004833,None,293.84395510004833,None,293.84395510004833,None,293.84395510004833,None,,,,,,,m_pilot,001,2021_Sep_22_1803,shapka,2021.1.4,59.996928161825835,
1,9,pre,left,left.png,left.png,bas,Чашки,Шашки,tableware3.png,car9.png,tool4.png,animal3.png,-298,-298,298,298,-200,200,-200,200,"[-200, 0]","[200, 0]","[81, 81]","[81, 81]","[81, 81]","[81, 81]",6,music1.png,music6.png,car2.png,animal7.png,tool5.png,car10.png,tool8.png,car1.png,-298,-298,298,298,-298,-298,298,298,85,-85,85,-85,316,-316,316,-316,"[81, 81]","[81, 81]","[81, 81]","[81, 81]","[81, 81]","[81, 81]","[81, 81]","[81, 81]",,,,,0,11,11,186,,,,,,,,,,,,,,,,,,,,,,,295.60920150001766,None,295.60920150001766,None,295.60920150001766,None,295.8223469000077,None,296.2270199000486,None,296.2270199000486,None,296.2270199000486,None,296.63913820002927,None,,,,,,,,,,,,,,,,,,,,,297.6768048000522,None,a,2.8639159000013024,297.6768048000522,None,297.6768048000522,None,297.6768048000522,None,297.6768048000522,None,297.6768048000522,None,297.6768048000522,None,297.6768048000522,None,297.6768048000522,None,297.6768048000522,None,297.6768048000522,None,297.6768048000522,None,297.6768048000522,None,297.6768048000522,None,,,,,,,m_pilot,001,2021_Sep_22_1803,shapka,2021.1.4,59.996928161825835,
2,9,pre,right,right.png,right.png,bas,Чашки,Шашки,tableware2.png,music9.png,animal6.png,car10.png,298,298,-298,-298,-200,200,-200,200,"[200, 0]","[-200, 0]","[81, 81]","[81, 81]","[81, 81]","[81, 81]",6,tool4.png,music2.png,music8.png,music7.png,animal1.png,animal3.png,music1.png,car5.png,298,298,-298,-298,298,298,-298,-298,-85,85,-85,85,316,-316,316,-316,"[81, 81]","[81, 81]","[81, 81]","[81, 81]","[81, 81]","[81, 81]","[81, 81]","[81, 81]",,,,,0,12,12,308,,,,,,,,,,,,,,,,,,,,,,,300.5950905000209,None,300.5950905000209,None,300.5950905000209,None,300.80608350003604,None,301.2084584000404,None,301.2084584000404,None,301.2084584000404,None,301.6225005000015,None,,,,,,,,,,,,,,,,,,,,,302.6615673000342,None,None,,302.6615673000342,None,302.6615673000342,None,302.6615673000342,None,302.6615673000342,None,302.6615673000342,None,302.6615673000342,None,302.6615673000342,None,302.6615673000342,None,302.6615673000342,None,302.6615673000342,None,302.6615673000342,None,302.6615673000342,None,302.6615673000342,None,,,,,,,m_pilot,001,2021_Sep_22_1803,shapka,2021.1.4,59.996928161825835,
1,10,abs,left,left.png,left.png,non,Яблоки,Пряники,car1.png,music3.png,car2.png,music8.png,-298,-298,298,298,-316,316,-316,316,"[-200, 0]","[200, 0]","[81, 81]","[81, 81]","[81, 81]","[81, 81]",6,animal9.png,tool1.png,music4.png,music7.png,car1.png,tool6.png,car5.png,tool10.png,-298,-298,298,298,-298,-298,298,298,85,-85,85,-85,200,-200,200,-200,"[81, 81]","[81, 81]","[81, 81]","[81, 81]","[81, 81]","[81, 81]","[81, 81]","[81, 81]",,,,,0,13,13,49,,,,,,,,,,,,,,,,,,,,,,,306.7098012000206,None,306.7098012000206,None,306.7098012000206,None,306.92294130002847,None,307.3283108000178,None,307.3283108000178,None,307.3283108000178,None,307.7395325000398,None,,,,,,,,,,,,,,,,,,,,,308.783285100013,None,p,-1.746581400046125,308.783285100013,None,308.783285100013,None,308.783285100013,None,308.783285100013,None,308.783285100013,None,308.783285100013,None,308.783285100013,None,308.783285100013,None,308.783285100013,None,308.783285100013,None,308.783285100013,None,308.783285100013,None,308.783285100013,None,,,,,,,m_pilot,001,2021_Sep_22_1803,shapka,2021.1.4,59.996928161825835,
1,6,abs,left,left.png,left.png,non,Стулья,Брусья,tool10.png,tool1.png,tool5.png,music10.png,-298,-298,298,298,-316,316,-316,316,"[-200, 0]","[200, 0]","[81, 81]","[81, 81]","[81, 81]","[81, 81]",2,None,None,None,None,None,None,None,None,-298,-298,298,298,-298,-298,298,298,-85,85,-85,85,-200,200,-200,200,"[81, 81]","[81, 81]","[81, 81]","[81, 81]","[81, 81]","[81, 81]","[81, 81]","[81, 81]",,,,,0,14,14,13,,,,,,,,,,,,,,,,,,,,,,,308.82082290004473,None,308.82082290004473,None,308.82082290004473,None,309.0229084000457,None,309.42888070002664,None,309.42888070002664,None,309.42888070002664,None,309.8396197000402,None,,,,,,,,,,,,,,,,,,,,,310.86849400005303,None,a,1.8960973000503145,310.86849400005303,None,310.86849400005303,None,310.86849400005303,None,310.86849400005303,None,310.86849400005303,None,310.86849400005303,None,310.86849400005303,None,310.86849400005303,None,310.86849400005303,None,310.86849400005303,None,310.86849400005303,None,310.86849400005303,None,310.86849400005303,None,,,,,,,m_pilot,001,2021_Sep_22_1803,shapka,2021.1.4,59.996928161825835,
1,8,abs,left,left.png,left.png,non,Стулья,Брусья,car3.png,music1.png,music5.png,music2.png,-298,-298,298,298,316,-316,316,-316,"[-200, 0]","[200, 0]","[81, 81]","[81, 81]","[81, 81]","[81, 81]",4,car8.png,tool7.png,animal1.png,tool4.png,None,None,None,None,-298,-298,298,298,-298,-298,298,298,-85,85,-85,85,200,-200,200,-200,"[81, 81]","[81, 81]","[81, 81]","[81, 81]","[81, 81]","[81, 81]","[81, 81]","[81, 81]",,,,,0,15,15,19,,,,,,,,,,,,,,,,,,,,,,,312.83245360001456,None,312.83245360001456,None,312.83245360001456,None,313.0398958000005,None,313.4414257000317,None,313.4414257000317,None,313.4414257000317,None,313.85648280003807,None,,,,,,,,,,,,,,,,,,,,,314.88462860003347,None,a,1.6399918000097387,314.88462860003347,None,314.88462860003347,None,314.88462860003347,None,314.88462860003347,None,314.88462860003347,None,314.88462860003347,None,314.88462860003347,None,314.88462860003347,None,314.88462860003347,None,314.88462860003347,None,314.88462860003347,None,314.88462860003347,None,314.88462860003347,None,,,,,,,m_pilot,001,2021_Sep_22_1803,shapka,2021.1.4,59.996928161825835,
2,5,pre,right,right.png,right.png,bas,Стулья,Брусья,furniture4.png,tool1.png,car2.png,tool8.png,298,298,-298,-298,316,-316,316,-316,"[200, 0]","[-200, 0]","[81, 81]","[81, 81]","[81, 81]","[81, 81]",2,None,None,None,None,None,None,None,None,298,298,-298,-298,298,298,-298,-298,85,-85,85,-85,200,-200,200,-200,"[81, 81]","[81, 81]","[81, 81]","[81, 81]","[81, 81]","[81, 81]","[81, 81]","[81, 81]",,,,,0,16,16,261,,,,,,,,,,,,,,,,,,,,,,,316.58222229999956,None,316.58222229999956,None,316.58222229999956,None,316.7899546000408,None,317.1912709000171,None,317.1912709000171,None,317.1912709000171,None,317.60661690001143,None,,,,,,,,,,,,,,,,,,,,,318.6259015999967,None,p,0.9146578999934718,318.6259015999967,None,318.6259015999967,None,318.6259015999967,None,318.6259015999967,None,318.6259015999967,None,318.6259015999967,None,318.6259015999967,None,318.6259015999967,None,318.6259015999967,None,318.6259015999967,None,318.6259015999967,None,318.6259015999967,None,318.6259015999967,None,,,,,,,m_pilot,001,2021_Sep_22_1803,shapka,2021.1.4,59.996928161825835,
2,10,abs,right,right.png,right.png,non,Рубашки,Барашки,animal3.png,music2.png,tool8.png,music5.png,298,298,-298,-298,-316,316,-316,316,"[200, 0]","[-200, 0]","[81, 81]","[81, 81]","[81, 81]","[81, 81]",6,tool6.png,animal1.png,animal4.png,music3.png,tool1.png,tool10.png,music9.png,tool7.png,298,298,-298,-298,298,298,-298,-298,85,-85,85,-85,-200,200,-200,200,"[81, 81]","[81, 81]","[81, 81]","[81, 81]","[81, 81]","[81, 81]","[81, 81]","[81, 81]",,,,,0,17,17,60,,,,,,,,,,,,,,,,,,,,,,,319.593796000001,None,319.593796000001,None,319.593796000001,None,319.80672200000845,None,320.2111952000414,None,320.2111952000414,None,320.2111952000414,None,320.6234168000519,None,,,,,,,,,,,,,,,,,,,,,321.6609567000414,None,a,1.6316812000004575,321.6609567000414,None,321.6609567000414,None,321.6609567000414,None,321.6609567000414,None,321.6609567000414,None,321.6609567000414,None,321.6609567000414,None,321.6609567000414,None,321.6609567000414,None,321.6609567000414,None,321.6609567000414,None,321.6609567000414,None,321.6609567000414,None,,,,,,,m_pilot,001,2021_Sep_22_1803,shapka,2021.1.4,59.996928161825835,
2,5,pre,right,right.png,right.png,bas,Рубашки,Барашки,clothes5.png,car1.png,music9.png,car3.png,298,298,-298,-298,316,-316,316,-316,"[200, 0]","[-200, 0]","[81, 81]","[81, 81]","[81, 81]","[81, 81]",2,None,None,None,None,None,None,None,None,298,298,-298,-298,298,298,-298,-298,-85,85,-85,85,-200,200,-200,200,"[81, 81]","[81, 81]","[81, 81]","[81, 81]","[81, 81]","[81, 81]","[81, 81]","[81, 81]",,,,,0,18,18,223,,,,,,,,,,,,,,,,,,,,,,,323.3469918000046,None,323.3469918000046,None,323.3469918000046,None,323.5570196000044,None,323.9584247000166,None,323.9584247000166,None,323.9584247000166,None,324.3737139000441,None,,,,,,,,,,,,,,,,,,,,,325.3898423000355,None,p,0.7747035000356846,325.3898423000355,None,325.3898423000355,None,325.3898423000355,None,325.3898423000355,None,325.3898423000355,None,325.3898423000355,None,325.3898423000355,None,325.3898423000355,None,325.3898423000355,None,325.3898423000355,None,325.3898423000355,None,325.3898423000355,None,325.3898423000355,None,,,,,,,m_pilot,001,2021_Sep_22_1803,shapka,2021.1.4,59.996928161825835,
2,10,abs,right,right.png,right.png,non,Стулья,Брусья,music9.png,animal8.png,car9.png,tool1.png,298,298,-298,-298,-316,316,-316,316,"[200, 0]","[-200, 0]","[81, 81]","[81, 81]","[81, 81]","[81, 81]",6,music2.png,music10.png,music1.png,tool3.png,car5.png,tool6.png,animal4.png,animal7.png,298,298,-298,-298,298,298,-298,-298,85,-85,85,-85,-200,200,-200,200,"[81, 81]","[81, 81]","[81, 81]","[81, 81]","[81, 81]","[81, 81]","[81, 81]","[81, 81]",,,,,0,19,19,75,,,,,,,,,,,,,,,,,,,,,,,326.2271237000241,None,326.2271237000241,None,326.2271237000241,None,326.4404472000315,None,326.84475920000114,None,326.84475920000114,None,326.84475920000114,None,327.25695569999516,None,,,,,,,,,,,,,,,,,,,,,328.28898790001404,None,a,1.5393859999603592,328.28898790001404,None,328.28898790001404,None,328.28898790001404,None,328.28898790001404,None,328.28898790001404,None,328.28898790001404,None,328.28898790001404,None,328.28898790001404,None,328.28898790001404,None,328.28898790001404,None,328.28898790001404,None,328.28898790001404,None,328.28898790001404,None,,,,,,,m_pilot,001,2021_Sep_22_1803,shapka,2021.1.4,59.996928161825835,
1,10,abs,left,left.png,left.png,non,Яблоки,Пряники,animal6.png,tool10.png,car7.png,music1.png,-298,-298,298,298,-316,316,-316,316,"[-200, 0]","[200, 0]","[81, 81]","[81, 81]","[81, 81]","[81, 81]",6,car5.png,car9.png,music3.png,music6.png,car1.png,music4.png,music8.png,car2.png,-298,-298,298,298,-298,-298,298,298,-85,85,-85,85,-200,200,-200,200,"[81, 81]","[81, 81]","[81, 81]","[81, 81]","[81, 81]","[81, 81]","[81, 81]","[81, 81]",,,,,0,20,20,47,,,,,,,,,,,,,,,,,,,,,,,329.8777885000454,None,329.8777885000454,None,329.8777885000454,None,330.09062030003406,None,330.4952011000132,None,330.4952011000132,None,330.4952011000132,None,330.9071719000349,None,,,,,,,,,,,,,,,,,,,,,331.95983470004285,None,a,1.0209560000221245,331.95983470004285,None,331.95983470004285,None,331.95983470004285,None,331.95983470004285,None,331.95983470004285,None,331.95983470004285,None,331.95983470004285,None,331.95983470004285,None,331.95983470004285,None,331.95983470004285,None,331.95983470004285,None,331.95983470004285,None,331.95983470004285,None,,,,,,,m_pilot,001,2021_Sep_22_1803,shapka,2021.1.4,59.996928161825835,
1,10,abs,left,left.png,left.png,non,Рубашки,Барашки,tool8.png,music6.png,car2.png,car5.png,-298,-298,298,298,-316,316,-316,316,"[-200, 0]","[200, 0]","[81, 81]","[81, 81]","[81, 81]","[81, 81]",6,car7.png,car1.png,animal4.png,animal8.png,animal10.png,tool1.png,animal9.png,animal3.png,-298,-298,298,298,-298,-298,298,298,85,-85,85,-85,-200,200,-200,200,"[81, 81]","[81, 81]","[81, 81]","[81, 81]","[81, 81]","[81, 81]","[81, 81]","[81, 81]",,,,,0,21,21,9,,,,,,,,,,,,,,,,,,,,,,,333.02909650001675,None,333.02909650001675,None,333.02909650001675,None,333.2407262000488,None,333.6451219000155,None,333.6451219000155,None,333.6451219000155,None,334.0573449000367,None,,,,,,,,,,,,,,,,,,,,,335.0937880999991,None,a,3.5907573999720626,335.0937880999991,None,335.0937880999991,None,335.0937880999991,None,335.0937880999991,None,335.0937880999991,None,335.0937880999991,None,335.0937880999991,None,335.0937880999991,None,335.0937880999991,None,335.0937880999991,None,335.0937880999991,None,335.0937880999991,None,335.0937880999991,None,,,,,,,m_pilot,001,2021_Sep_22_1803,shapka,2021.1.4,59.996928161825835,
1,7,pre,left,left.png,left.png,bas,Яблоки,Пряники,fruit5.png,animal6.png,tool8.png,animal5.png,-298,-298,298,298,85,-85,85,-85,"[-200, 0]","[200, 0]","[81, 81]","[81, 81]","[81, 81]","[81, 81]",4,tool10.png,tool2.png,car1.png,animal1.png,None,None,None,None,-298,-298,298,298,-298,-298,298,298,316,-316,316,-316,200,-200,200,-200,"[81, 81]","[81, 81]","[81, 81]","[81, 81]","[81, 81]","[81, 81]","[81, 81]","[81, 81]",,,,,0,22,22,209,,,,,,,,,,,,,,,,,,,,,,,338.750090000045,None,338.750090000045,None,338.750090000045,None,338.9576537000248,None,339.36234580003656,None,339.36234580003656,None,339.36234580003656,None,339.77426320000086,None,,,,,,,,,,,,,,,,,,,,,340.82665350002935,None,p,0.9697468999656849,340.82665350002935,None,340.82665350002935,None,340.82665350002935,None,340.82665350002935,None,340.82665350002935,None,340.82665350002935,None,340.82665350002935,None,340.82665350002935,None,340.82665350002935,None,340.82665350002935,None,340.82665350002935,None,340.82665350002935,None,340.82665350002935,None,,,,,,,m_pilot,001,2021_Sep_22_1803,shapka,2021.1.4,59.996928161825835,
1,6,abs,left,left.png,left.png,non,Яблоки,Пряники,animal6.png,tool1.png,animal8.png,animal5.png,-298,-298,298,298,316,-316,316,-316,"[-200, 0]","[200, 0]","[81, 81]","[81, 81]","[81, 81]","[81, 81]",2,None,None,None,None,None,None,None,None,-298,-298,298,298,-298,-298,298,298,-85,85,-85,85,-200,200,-200,200,"[81, 81]","[81, 81]","[81, 81]","[81, 81]","[81, 81]","[81, 81]","[81, 81]","[81, 81]",,,,,0,23,23,40,,,,,,,,,,,,,,,,,,,,,,,341.8604977000505,None,341.8604977000505,None,341.8604977000505,None,342.07436020002933,None,342.4762701000436,None,342.4762701000436,None,342.4762701000436,None,342.891075200052,None,,,,,,,,,,,,,,,,,,,,,343.91189580003265,None,a,1.0686226000543684,343.91189580003265,None,343.91189580003265,None,343.91189580003265,None,343.91189580003265,None,343.91189580003265,None,343.91189580003265,None,343.91189580003265,None,343.91189580003265,None,343.91189580003265,None,343.91189580003265,None,343.91189580003265,None,343.91189580003265,None,343.91189580003265,None,,,,,,,m_pilot,001,2021_Sep_22_1803,shapka,2021.1.4,59.996928161825835,
2,5,pre,right,right.png,right.png,bas,Чашки,Шашки,tableware5.png,music10.png,car2.png,animal3.png,298,298,-298,-298,316,-316,316,-316,"[200, 0]","[-200, 0]","[81, 81]","[81, 81]","[81, 81]","[81, 81]",2,None,None,None,None,None,None,None,None,298,298,-298,-298,298,298,-298,-298,-85,85,-85,85,-200,200,-200,200,"[81, 81]","[81, 81]","[81, 81]","[81, 81]","[81, 81]","[81, 81]","[81, 81]","[81, 81]",,,,,0,24,24,283,,,,,,,,,,,,,,,,,,,,,,,345.03725280001527,None,345.03725280001527,None,345.03725280001527,None,345.24127170001157,None,345.6456280000275,None,345.6456280000275,None,345.6456280000275,None,346.0578536000103,None,,,,,,,,,,,,,,,,,,,,,347.07739470002707,None,a,1.4951867000199854,347.07739470002707,None,347.07739470002707,None,347.07739470002707,None,347.07739470002707,None,347.07739470002707,None,347.07739470002707,None,347.07739470002707,None,347.07739470002707,None,347.07739470002707,None,347.07739470002707,None,347.07739470002707,None,347.07739470002707,None,347.07739470002707,None,,,,,,,m_pilot,001,2021_Sep_22_1803,shapka,2021.1.4,59.996928161825835,
2,6,abs,right,right.png,right.png,non,Рубашки,Барашки,car1.png,animal5.png,car1.png,music8.png,298,298,-298,-298,-316,316,-316,316,"[200, 0]","[-200, 0]","[81, 81]","[81, 81]","[81, 81]","[81, 81]",2,None,None,None,None,None,None,None,None,298,298,-298,-298,298,298,-298,-298,-85,85,-85,85,-200,200,-200,200,"[81, 81]","[81, 81]","[81, 81]","[81, 81]","[81, 81]","[81, 81]","[81, 81]","[81, 81]",,,,,0,25,25,51,,,,,,,,,,,,,,,,,,,,,,,348.6294115000055,None,348.6294115000055,None,348.6294115000055,None,348.84132609999506,None,349.2474373000441,None,349.2474373000441,None,349.2474373000441,None,349.6580358000356,None,,,,,,,,,,,,,,,,,,,,,350.68383580003865,None,a,2.144545899995137,350.68383580003865,None,350.68383580003865,None,350.68383580003865,None,350.68383580003865,None,350.68383580003865,None,350.68383580003865,None,350.68383580003865,None,350.68383580003865,None,350.68383580003865,None,350.68383580003865,None,350.68383580003865,None,350.68383580003865,None,350.68383580003865,None,,,,,,,m_pilot,001,2021_Sep_22_1803,shapka,2021.1.4,59.996928161825835,
2,10,abs,right,right.png,right.png,non,Рубашки,Барашки,car8.png,tool6.png,music4.png,tool7.png,298,298,-298,-298,-316,316,-316,316,"[200, 0]","[-200, 0]","[81, 81]","[81, 81]","[81, 81]","[81, 81]",6,animal10.png,animal1.png,music1.png,animal8.png,tool5.png,music3.png,music2.png,tool9.png,298,298,-298,-298,298,298,-298,-298,85,-85,85,-85,-200,200,-200,200,"[81, 81]","[81, 81]","[81, 81]","[81, 81]","[81, 81]","[81, 81]","[81, 81]","[81, 81]",,,,,0,26,26,59,,,,,,,,,,,,,,,,,,,,,,,352.89506200002506,None,352.89506200002506,None,352.89506200002506,None,353.10837720002746,None,353.5095799000119,None,353.5095799000119,None,353.5095799000119,None,353.92495060001966,None,,,,,,,,,,,,,,,,,,,,,354.95757500000764,None,a,2.015112599998247,354.95757500000764,None,354.95757500000764,None,354.95757500000764,None,354.95757500000764,None,354.95757500000764,None,354.95757500000764,None,354.95757500000764,None,354.95757500000764,None,354.95757500000764,None,354.95757500000764,None,354.95757500000764,None,354.95757500000764,None,354.95757500000764,None,,,,,,,m_pilot,001,2021_Sep_22_1803,shapka,2021.1.4,59.996928161825835,
1,6,abs,left,left.png,left.png,non,Стулья,Брусья,tool1.png,animal2.png,car3.png,music8.png,-298,-298,298,298,-316,316,-316,316,"[-200, 0]","[200, 0]","[81, 81]","[81, 81]","[81, 81]","[81, 81]",2,None,None,None,None,None,None,None,None,-298,-298,298,298,-298,-298,298,298,-85,85,-85,85,-200,200,-200,200,"[81, 81]","[81, 81]","[81, 81]","[81, 81]","[81, 81]","[81, 81]","[81, 81]","[81, 81]",,,,,0,27,27,14,,,,,,,,,,,,,,,,,,,,,,,357.01307560002897,None,357.01307560002897,None,357.01307560002897,None,357.2251237000455,None,357.6299687999999,None,357.6299687999999,None,357.6299687999999,None,358.04174310003873,None,,,,,,,,,,,,,,,,,,,,,359.0566771000158,None,a,1.3638737000292167,359.0566771000158,None,359.0566771000158,None,359.0566771000158,None,359.0566771000158,None,359.0566771000158,None,359.0566771000158,None,359.0566771000158,None,359.0566771000158,None,359.0566771000158,None,359.0566771000158,None,359.0566771000158,None,359.0566771000158,None,359.0566771000158,None,,,,,,,m_pilot,001,2021_Sep_22_1803,shapka,2021.1.4,59.996928161825835,
2,6,abs,right,right.png,right.png,non,Яблоки,Пряники,car3.png,animal7.png,tool1.png,animal9.png,298,298,-298,-298,316,-316,316,-316,"[200, 0]","[-200, 0]","[81, 81]","[81, 81]","[81, 81]","[81, 81]",2,None,None,None,None,None,None,None,None,298,298,-298,-298,298,298,-298,-298,-85,85,-85,85,-200,200,-200,200,"[81, 81]","[81, 81]","[81, 81]","[81, 81]","[81, 81]","[81, 81]","[81, 81]","[81, 81]",,,,,0,28,28,88,,,,,,,,,,,,,,,,,,,,,,,360.47912140004337,None,360.47912140004337,None,360.47912140004337,None,360.6918741000118,None,361.096328500018,None,361.096328500018,None,361.096328500018,None,361.5086288000457,None,,,,,,,,,,,,,,,,,,,,,362.5232539999997,None,a,0.8013128999737091,362.5232539999997,None,362.5232539999997,None,362.5232539999997,None,362.5232539999997,None,362.5232539999997,None,362.5232539999997,None,362.5232539999997,None,362.5232539999997,None,362.5232539999997,None,362.5232539999997,None,362.5232539999997,None,362.5232539999997,None,362.5232539999997,None,,,,,,,m_pilot,001,2021_Sep_22_1803,shapka,2021.1.4,59.996928161825835,
2,8,abs,right,right.png,right.png,non,Яблоки,Пряники,car2.png,car5.png,tool8.png,tool1.png,298,298,-298,-298,-316,316,-316,316,"[200, 0]","[-200, 0]","[81, 81]","[81, 81]","[81, 81]","[81, 81]",4,tool10.png,music9.png,music2.png,tool7.png,None,None,None,None,298,298,-298,-298,298,298,-298,-298,85,-85,85,-85,200,-200,200,-200,"[81, 81]","[81, 81]","[81, 81]","[81, 81]","[81, 81]","[81, 81]","[81, 81]","[81, 81]",,,,,0,29,29,93,,,,,,,,,,,,,,,,,,,,,,,363.3820069000358,None,363.3820069000358,None,363.3820069000358,None,363.5921586000477,None,363.99341480003204,None,363.99341480003204,None,363.99341480003204,None,364.40877530002035,None,,,,,,,,,,,,,,,,,,,,,365.43682900001295,None,a,0.8638054999755695,365.43682900001295,None,365.43682900001295,None,365.43682900001295,None,365.43682900001295,None,365.43682900001295,None,365.43682900001295,None,365.43682900001295,None,365.43682900001295,None,365.43682900001295,None,365.43682900001295,None,365.43682900001295,None,365.43682900001295,None,365.43682900001295,None,,,,,,,m_pilot,001,2021_Sep_22_1803,shapka,2021.1.4,59.996928161825835,
2,9,pre,right,right.png,right.png,bas,Яблоки,Пряники,fruit3.png,tool2.png,tool4.png,car10.png,298,298,-298,-298,-200,200,-200,200,"[200, 0]","[-200, 0]","[81, 81]","[81, 81]","[81, 81]","[81, 81]",6,tool9.png,music7.png,car1.png,tool1.png,music6.png,animal3.png,music5.png,car8.png,298,298,-298,-298,298,298,-298,-298,85,-85,85,-85,-316,316,-316,316,"[81, 81]","[81, 81]","[81, 81]","[81, 81]","[81, 81]","[81, 81]","[81, 81]","[81, 81]",,,,,0,30,30,333,,,,,,,,,,,,,,,,,,,,,,,366.3491991000483,None,366.3491991000483,None,366.3491991000483,None,366.55894830002217,None,366.96091800002614,None,366.96091800002614,None,366.96091800002614,None,367.3756194000016,None,,,,,,,,,,,,,,,,,,,,,368.40736090001883,None,p,0.6533308000070974,368.40736090001883,None,368.40736090001883,None,368.40736090001883,None,368.40736090001883,None,368.40736090001883,None,368.40736090001883,None,368.40736090001883,None,368.40736090001883,None,368.40736090001883,None,368.40736090001883,None,368.40736090001883,None,368.40736090001883,None,368.40736090001883,None,,,,,,,m_pilot,001,2021_Sep_22_1803,shapka,2021.1.4,59.996928161825835,
2,7,pre,right,right.png,right.png,bas,Рубашки,Барашки,clothes4.png,animal1.png,tool2.png,tool4.png,298,298,-298,-298,-316,316,-316,316,"[200, 0]","[-200, 0]","[81, 81]","[81, 81]","[81, 81]","[81, 81]",4,tool8.png,car6.png,car7.png,tool10.png,None,None,None,None,298,298,-298,-298,298,298,-298,-298,85,-85,85,-85,200,-200,200,-200,"[81, 81]","[81, 81]","[81, 81]","[81, 81]","[81, 81]","[81, 81]","[81, 81]","[81, 81]",,,,,0,31,31,238,,,,,,,,,,,,,,,,,,,,,,,369.1145832000184,None,369.1145832000184,None,369.1145832000184,None,369.32569050003076,None,369.730998700019,None,369.730998700019,None,369.730998700019,None,370.1423026000266,None,,,,,,,,,,,,,,,,,,,,,371.1687121000141,None,a,0.7958459999645129,371.1687121000141,None,371.1687121000141,None,371.1687121000141,None,371.1687121000141,None,371.1687121000141,None,371.1687121000141,None,371.1687121000141,None,371.1687121000141,None,371.1687121000141,None,371.1687121000141,None,371.1687121000141,None,371.1687121000141,None,371.1687121000141,None,,,,,,,m_pilot,001,2021_Sep_22_1803,shapka,2021.1.4,59.996928161825835,
1,5,pre,left,left.png,left.png,bas,Яблоки,Пряники,fruit1.png,tool10.png,car8.png,animal6.png,-298,-298,298,298,316,-316,316,-316,"[-200, 0]","[200, 0]","[81, 81]","[81, 81]","[81, 81]","[81, 81]",2,None,None,None,None,None,None,None,None,-298,-298,298,298,-298,-298,298,298,85,-85,85,-85,200,-200,200,-200,"[81, 81]","[81, 81]","[81, 81]","[81, 81]","[81, 81]","[81, 81]","[81, 81]","[81, 81]",,,,,0,32,32,199,,,,,,,,,,,,,,,,,,,,,,,372.0165507000056,None,372.0165507000056,None,372.0165507000056,None,372.2258164000232,None,372.63038190000225,None,372.63038190000225,None,372.63038190000225,None,373.0423895000131,None,,,,,,,,,,,,,,,,,,,,,374.05825000000186,None,p,2.354111800028477,374.05825000000186,None,374.05825000000186,None,374.05825000000186,None,374.05825000000186,None,374.05825000000186,None,374.05825000000186,None,374.05825000000186,None,374.05825000000186,None,374.05825000000186,None,374.05825000000186,None,374.05825000000186,None,374.05825000000186,None,374.05825000000186,None,,,,,,,m_pilot,001,2021_Sep_22_1803,shapka,2021.1.4,59.996928161825835,
2,7,pre,right,right.png,right.png,bas,Чашки,Шашки,tableware1.png,tool6.png,music10.png,car9.png,298,298,-298,-298,85,-85,85,-85,"[200, 0]","[-200, 0]","[81, 81]","[81, 81]","[81, 81]","[81, 81]",4,animal5.png,tool7.png,music1.png,tool2.png,None,None,None,None,298,298,-298,-298,298,298,-298,-298,-316,316,-316,316,200,-200,200,-200,"[81, 81]","[81, 81]","[81, 81]","[81, 81]","[81, 81]","[81, 81]","[81, 81]","[81, 81]",,,,,0,33,33,293,,,,,,,,,,,,,,,,,,,,,,,376.4778778000036,None,376.4778778000036,None,376.4778778000036,None,376.6925499000354,None,377.0972397000296,None,377.0972397000296,None,377.0972397000296,None,377.5092438000138,None,,,,,,,,,,,,,,,,,,,,,378.5324776000343,None,p,1.2320269999909215,378.5324776000343,None,378.5324776000343,None,378.5324776000343,None,378.5324776000343,None,378.5324776000343,None,378.5324776000343,None,378.5324776000343,None,378.5324776000343,None,378.5324776000343,None,378.5324776000343,None,378.5324776000343,None,378.5324776000343,None,378.5324776000343,None,,,,,,,m_pilot,001,2021_Sep_22_1803,shapka,2021.1.4,59.996928161825835,
1,9,pre,left,left.png,left.png,bas,Яблоки,Пряники,fruit4.png,car10.png,tool1.png,car4.png,-298,-298,298,298,200,-200,200,-200,"[-200, 0]","[200, 0]","[81, 81]","[81, 81]","[81, 81]","[81, 81]",6,tool2.png,animal8.png,tool3.png,animal7.png,animal5.png,music9.png,car6.png,car1.png,-298,-298,298,298,-298,-298,298,298,85,-85,85,-85,-316,316,-316,316,"[81, 81]","[81, 81]","[81, 81]","[81, 81]","[81, 81]","[81, 81]","[81, 81]","[81, 81]",,,,,0,34,34,219,,,,,,,,,,,,,,,,,,,,,,,379.8138958000345,None,379.8138958000345,None,379.8138958000345,None,380.02617650001775,None,380.4309863000526,None,380.4309863000526,None,380.4309863000526,None,380.84272890002467,None,,,,,,,,,,,,,,,,,,,,,381.87823339999886,None,p,1.7503795999800786,381.87823339999886,None,381.87823339999886,None,381.87823339999886,None,381.87823339999886,None,381.87823339999886,None,381.87823339999886,None,381.87823339999886,None,381.87823339999886,None,381.87823339999886,None,381.87823339999886,None,381.87823339999886,None,381.87823339999886,None,381.87823339999886,None,,,,,,,m_pilot,001,2021_Sep_22_1803,shapka,2021.1.4,59.996928161825835,
2,10,abs,right,right.png,right.png,non,Яблоки,Пряники,tool5.png,tool10.png,car6.png,animal4.png,298,298,-298,-298,-316,316,-316,316,"[200, 0]","[-200, 0]","[81, 81]","[81, 81]","[81, 81]","[81, 81]",6,tool3.png,car1.png,car7.png,music5.png,music1.png,music9.png,car8.png,car2.png,298,298,-298,-298,298,298,-298,-298,85,-85,85,-85,200,-200,200,-200,"[81, 81]","[81, 81]","[81, 81]","[81, 81]","[81, 81]","[81, 81]","[81, 81]","[81, 81]",,,,,0,35,35,99,,,,,,,,,,,,,,,,,,,,,,,383.68376410001656,None,383.68376410001656,None,383.68376410001656,None,383.8929807000095,None,384.29889340000227,None,384.29889340000227,None,384.29889340000227,None,384.7095896000392,None,,,,,,,,,,,,,,,,,,,,,385.7352855000063,None,a,1.805293100012932,385.7352855000063,None,385.7352855000063,None,385.7352855000063,None,385.7352855000063,None,385.7352855000063,None,385.7352855000063,None,385.7352855000063,None,385.7352855000063,None,385.7352855000063,None,385.7352855000063,None,385.7352855000063,None,385.7352855000063,None,385.7352855000063,None,,,,,,,m_pilot,001,2021_Sep_22_1803,shapka,2021.1.4,59.996928161825835,
2,7,pre,right,right.png,right.png,bas,Рубашки,Барашки,clothes5.png,tool5.png,car1.png,tool9.png,298,298,-298,-298,-316,316,-316,316,"[200, 0]","[-200, 0]","[81, 81]","[81, 81]","[81, 81]","[81, 81]",4,car8.png,music7.png,animal4.png,tool2.png,None,None,None,None,298,298,-298,-298,298,298,-298,-298,85,-85,85,-85,200,-200,200,-200,"[81, 81]","[81, 81]","[81, 81]","[81, 81]","[81, 81]","[81, 81]","[81, 81]","[81, 81]",,,,,0,36,36,237,,,,,,,,,,,,,,,,,,,,,,,387.58426289999625,None,387.58426289999625,None,387.58426289999625,None,387.79303330002585,None,388.1991533000255,None,388.1991533000255,None,388.1991533000255,None,388.6097100000479,None,,,,,,,,,,,,,,,,,,,,,389.6326713000308,None,a,3.1959577000234276,389.6326713000308,None,389.6326713000308,None,389.6326713000308,None,389.6326713000308,None,389.6326713000308,None,389.6326713000308,None,389.6326713000308,None,389.6326713000308,None,389.6326713000308,None,389.6326713000308,None,389.6326713000308,None,389.6326713000308,None,389.6326713000308,None,,,,,,,m_pilot,001,2021_Sep_22_1803,shapka,2021.1.4,59.996928161825835,
1,9,pre,left,left.png,left.png,bas,Рубашки,Барашки,clothes2.png,animal8.png,music10.png,car2.png,-298,-298,298,298,-85,85,-85,85,"[-200, 0]","[200, 0]","[81, 81]","[81, 81]","[81, 81]","[81, 81]",6,animal3.png,music1.png,car1.png,animal6.png,animal5.png,car4.png,tool9.png,car7.png,-298,-298,298,298,-298,-298,298,298,316,-316,316,-316,200,-200,200,-200,"[81, 81]","[81, 81]","[81, 81]","[81, 81]","[81, 81]","[81, 81]","[81, 81]","[81, 81]",,,,,0,37,37,128,,,,,,,,,,,,,,,,,,,,,,,392.8805883000023,None,392.8805883000023,None,392.8805883000023,None,393.0932716000243,None,393.4945905000204,None,393.4945905000204,None,393.4945905000204,None,393.9100536000333,None,,,,,,,,,,,,,,,,,,,,,394.94072880002204,None,a,2.6076787999481894,394.94072880002204,None,394.94072880002204,None,394.94072880002204,None,394.94072880002204,None,394.94072880002204,None,394.94072880002204,None,394.94072880002204,None,394.94072880002204,None,394.94072880002204,None,394.94072880002204,None,394.94072880002204,None,394.94072880002204,None,394.94072880002204,None,,,,,,,m_pilot,001,2021_Sep_22_1803,shapka,2021.1.4,59.996928161825835,
2,6,abs,right,right.png,right.png,non,Яблоки,Пряники,tool9.png,car10.png,music6.png,car1.png,298,298,-298,-298,316,-316,316,-316,"[200, 0]","[-200, 0]","[81, 81]","[81, 81]","[81, 81]","[81, 81]",2,None,None,None,None,None,None,None,None,298,298,-298,-298,298,298,-298,-298,-85,85,-85,85,-200,200,-200,200,"[81, 81]","[81, 81]","[81, 81]","[81, 81]","[81, 81]","[81, 81]","[81, 81]","[81, 81]",,,,,0,38,38,92,,,,,,,,,,,,,,,,,,,,,,,397.6010635000421,None,397.6010635000421,None,397.6010635000421,None,397.8102566000307,None,398.2148466000217,None,398.2148466000217,None,398.2148466000217,None,398.6268455000245,None,,,,,,,,,,,,,,,,,,,,,399.6457119000261,None,a,1.846785000001546,399.6457119000261,None,399.6457119000261,None,399.6457119000261,None,399.6457119000261,None,399.6457119000261,None,399.6457119000261,None,399.6457119000261,None,399.6457119000261,None,399.6457119000261,None,399.6457119000261,None,399.6457119000261,None,399.6457119000261,None,399.6457119000261,None,,,,,,,m_pilot,001,2021_Sep_22_1803,shapka,2021.1.4,59.996928161825835,
1,9,pre,left,left.png,left.png,bas,Чашки,Шашки,tableware3.png,animal1.png,car7.png,tool6.png,-298,-298,298,298,-85,85,-85,85,"[-200, 0]","[200, 0]","[81, 81]","[81, 81]","[81, 81]","[81, 81]",6,car2.png,tool3.png,animal8.png,music10.png,animal5.png,car9.png,car4.png,car1.png,-298,-298,298,298,-298,-298,298,298,316,-316,316,-316,-200,200,-200,200,"[81, 81]","[81, 81]","[81, 81]","[81, 81]","[81, 81]","[81, 81]","[81, 81]","[81, 81]",,,,,0,39,39,183,,,,,,,,,,,,,,,,,,,,,,,401.5427600000403,None,401.5427600000403,None,401.5427600000403,None,401.7437676000409,None,402.1481576000224,None,402.1481576000224,None,402.1481576000224,None,402.5603529000073,None,,,,,,,,,,,,,,,,,,,,,403.5953280000249,None,p,3.737036399950739,403.5953280000249,None,403.5953280000249,None,403.5953280000249,None,403.5953280000249,None,403.5953280000249,None,403.5953280000249,None,403.5953280000249,None,403.5953280000249,None,403.5953280000249,None,403.5953280000249,None,403.5953280000249,None,403.5953280000249,None,403.5953280000249,None,,,,,,,m_pilot,001,2021_Sep_22_1803,shapka,2021.1.4,59.996928161825835,
1,9,pre,left,left.png,left.png,bas,Рубашки,Барашки,clothes3.png,tool2.png,music1.png,car4.png,-298,-298,298,298,-85,85,-85,85,"[-200, 0]","[200, 0]","[81, 81]","[81, 81]","[81, 81]","[81, 81]",6,car1.png,music9.png,car10.png,animal8.png,tool3.png,tool6.png,animal7.png,music5.png,-298,-298,298,298,-298,-298,298,298,316,-316,316,-316,-200,200,-200,200,"[81, 81]","[81, 81]","[81, 81]","[81, 81]","[81, 81]","[81, 81]","[81, 81]","[81, 81]",,,,,0,40,40,132,,,,,,,,,,,,,,,,,,,,,,,407.39289620000636,None,407.39289620000636,None,407.39289620000636,None,407.5940174999996,None,407.9983426000108,None,407.9983426000108,None,407.9983426000108,None,408.4106002000044,None,,,,,,,,,,,,,,,,,,,,,409.43818400002783,None,p,2.5261774000246078,409.43818400002783,None,409.43818400002783,None,409.43818400002783,None,409.43818400002783,None,409.43818400002783,None,409.43818400002783,None,409.43818400002783,None,409.43818400002783,None,409.43818400002783,None,409.43818400002783,None,409.43818400002783,None,409.43818400002783,None,409.43818400002783,None,,,,,,,m_pilot,001,2021_Sep_22_1803,shapka,2021.1.4,59.996928161825835,
1,10,abs,left,left.png,left.png,non,Рубашки,Барашки,music7.png,car8.png,music5.png,tool3.png,-298,-298,298,298,-316,316,-316,316,"[-200, 0]","[200, 0]","[81, 81]","[81, 81]","[81, 81]","[81, 81]",6,animal7.png,car9.png,animal6.png,tool4.png,animal2.png,car1.png,tool1.png,car10.png,-298,-298,298,298,-298,-298,298,298,85,-85,85,-85,-200,200,-200,200,"[81, 81]","[81, 81]","[81, 81]","[81, 81]","[81, 81]","[81, 81]","[81, 81]","[81, 81]",,,,,0,41,41,8,,,,,,,,,,,,,,,,,,,,,,,412.02442520001205,None,412.02442520001205,None,412.02442520001205,None,412.22743200004334,None,412.6341822000104,None,412.6341822000104,None,412.6341822000104,None,413.04415200004587,None,,,,,,,,,,,,,,,,,,,,,414.09827090002364,None,a,2.2183680000016466,414.09827090002364,None,414.09827090002364,None,414.09827090002364,None,414.09827090002364,None,414.09827090002364,None,414.09827090002364,None,414.09827090002364,None,414.09827090002364,None,414.09827090002364,None,414.09827090002364,None,414.09827090002364,None,414.09827090002364,None,414.09827090002364,None,,,,,,,m_pilot,001,2021_Sep_22_1803,shapka,2021.1.4,59.996928161825835,
2,5,pre,right,right.png,right.png,bas,Яблоки,Пряники,fruit2.png,animal1.png,music5.png,car4.png,298,298,-298,-298,316,-316,316,-316,"[200, 0]","[-200, 0]","[81, 81]","[81, 81]","[81, 81]","[81, 81]",2,None,None,None,None,None,None,None,None,298,298,-298,-298,298,298,-298,-298,85,-85,85,-85,200,-200,200,-200,"[81, 81]","[81, 81]","[81, 81]","[81, 81]","[81, 81]","[81, 81]","[81, 81]","[81, 81]",,,,,0,42,42,322,,,,,,,,,,,,,,,,,,,,,,,416.3670542000327,None,416.3670542000327,None,416.3670542000327,None,416.57778230000986,None,416.98240420001093,None,416.98240420001093,None,416.98240420001093,None,417.39445500000147,None,,,,,,,,,,,,,,,,,,,,,418.42548620002344,None,p,1.354976299975533,418.42548620002344,None,418.42548620002344,None,418.42548620002344,None,418.42548620002344,None,418.42548620002344,None,418.42548620002344,None,418.42548620002344,None,418.42548620002344,None,418.42548620002344,None,418.42548620002344,None,418.42548620002344,None,418.42548620002344,None,418.42548620002344,None,,,,,,,m_pilot,001,2021_Sep_22_1803,shapka,2021.1.4,59.996928161825835,
1,8,abs,left,left.png,left.png,non,Яблоки,Пряники,music6.png,animal8.png,tool1.png,tool6.png,-298,-298,298,298,-316,316,-316,316,"[-200, 0]","[200, 0]","[81, 81]","[81, 81]","[81, 81]","[81, 81]",4,car7.png,tool2.png,music5.png,tool9.png,None,None,None,None,-298,-298,298,298,-298,-298,298,298,85,-85,85,-85,200,-200,200,-200,"[81, 81]","[81, 81]","[81, 81]","[81, 81]","[81, 81]","[81, 81]","[81, 81]","[81, 81]",,,,,0,43,43,45,,,,,,,,,,,,,,,,,,,,,,,419.84699530003127,None,419.84699530003127,None,419.84699530003127,None,420.0611601000419,None,420.46247710002353,None,420.46247710002353,None,420.46247710002353,None,420.8778843000182,None,,,,,,,,,,,,,,,,,,,,,421.90049300005194,None,a,1.5438748000306077,421.90049300005194,None,421.90049300005194,None,421.90049300005194,None,421.90049300005194,None,421.90049300005194,None,421.90049300005194,None,421.90049300005194,None,421.90049300005194,None,421.90049300005194,None,421.90049300005194,None,421.90049300005194,None,421.90049300005194,None,421.90049300005194,None,,,,,,,m_pilot,001,2021_Sep_22_1803,shapka,2021.1.4,59.996928161825835,
2,5,pre,right,right.png,right.png,bas,Стулья,Брусья,furniture4.png,animal1.png,car4.png,car5.png,298,298,-298,-298,316,-316,316,-316,"[200, 0]","[-200, 0]","[81, 81]","[81, 81]","[81, 81]","[81, 81]",2,None,None,None,None,None,None,None,None,298,298,-298,-298,298,298,-298,-298,85,-85,85,-85,200,-200,200,-200,"[81, 81]","[81, 81]","[81, 81]","[81, 81]","[81, 81]","[81, 81]","[81, 81]","[81, 81]",,,,,0,44,44,255,,,,,,,,,,,,,,,,,,,,,,,423.48799760005204,None,423.48799760005204,None,423.48799760005204,None,423.6946980000357,None,424.0994123000419,None,424.0994123000419,None,424.0994123000419,None,424.5112236000132,None,,,,,,,,,,,,,,,,,,,,,425.53226180002093,None,p,1.0723663000389934,425.53226180002093,None,425.53226180002093,None,425.53226180002093,None,425.53226180002093,None,425.53226180002093,None,425.53226180002093,None,425.53226180002093,None,425.53226180002093,None,425.53226180002093,None,425.53226180002093,None,425.53226180002093,None,425.53226180002093,None,425.53226180002093,None,,,,,,,m_pilot,001,2021_Sep_22_1803,shapka,2021.1.4,59.996928161825835,
1,9,pre,left,left.png,left.png,bas,Чашки,Шашки,tableware5.png,car1.png,tool9.png,music1.png,-298,-298,298,298,-200,200,-200,200,"[-200, 0]","[200, 0]","[81, 81]","[81, 81]","[81, 81]","[81, 81]",6,music7.png,music2.png,music5.png,music3.png,music8.png,tool10.png,animal4.png,animal6.png,-298,-298,298,298,-298,-298,298,298,85,-85,85,-85,316,-316,316,-316,"[81, 81]","[81, 81]","[81, 81]","[81, 81]","[81, 81]","[81, 81]","[81, 81]","[81, 81]",,,,,0,45,45,185,,,,,,,,,,,,,,,,,,,,,,,426.65576170000713,None,426.65576170000713,None,426.65576170000713,None,426.86141340003815,None,427.2665388000314,None,427.2665388000314,None,427.2665388000314,None,427.678108800028,None,,,,,,,,,,,,,,,,,,,,,428.7157496000291,None,None,,428.7157496000291,None,428.7157496000291,None,428.7157496000291,None,428.7157496000291,None,428.7157496000291,None,428.7157496000291,None,428.7157496000291,None,428.7157496000291,None,428.7157496000291,None,428.7157496000291,None,428.7157496000291,None,428.7157496000291,None,428.7157496000291,None,,,,,,,m_pilot,001,2021_Sep_22_1803,shapka,2021.1.4,59.996928161825835,
2,10,abs,right,right.png,right.png,non,Чашки,Шашки,car9.png,music8.png,music2.png,animal9.png,298,298,-298,-298,316,-316,316,-316,"[200, 0]","[-200, 0]","[81, 81]","[81, 81]","[81, 81]","[81, 81]",6,tool1.png,music3.png,animal7.png,tool10.png,music1.png,tool4.png,music6.png,animal5.png,298,298,-298,-298,298,298,-298,-298,-85,85,-85,85,-200,200,-200,200,"[81, 81]","[81, 81]","[81, 81]","[81, 81]","[81, 81]","[81, 81]","[81, 81]","[81, 81]",,,,,0,46,46,85,,,,,,,,,,,,,,,,,,,,,,,432.75172320002457,None,432.75172320002457,None,432.75172320002457,None,432.961827000021,None,433.3633829000173,None,433.3633829000173,None,433.3633829000173,None,433.77848800003994,None,,,,,,,,,,,,,,,,,,,,,434.8277672000113,None,a,2.9767829999909736,434.8277672000113,None,434.8277672000113,None,434.8277672000113,None,434.8277672000113,None,434.8277672000113,None,434.8277672000113,None,434.8277672000113,None,434.8277672000113,None,434.8277672000113,None,434.8277672000113,None,434.8277672000113,None,434.8277672000113,None,434.8277672000113,None,,,,,,,m_pilot,001,2021_Sep_22_1803,shapka,2021.1.4,59.996928161825835,
1,5,pre,left,left.png,left.png,bas,Яблоки,Пряники,fruit3.png,animal7.png,car1.png,car2.png,-298,-298,298,298,316,-316,316,-316,"[-200, 0]","[200, 0]","[81, 81]","[81, 81]","[81, 81]","[81, 81]",2,None,None,None,None,None,None,None,None,-298,-298,298,298,-298,-298,298,298,85,-85,85,-85,200,-200,200,-200,"[81, 81]","[81, 81]","[81, 81]","[81, 81]","[81, 81]","[81, 81]","[81, 81]","[81, 81]",,,,,0,47,47,196,,,,,,,,,,,,,,,,,,,,,,,437.87125580001157,None,437.87125580001157,None,437.87125580001157,None,438.0786528000026,None,438.4843921000138,None,438.4843921000138,None,438.4843921000138,None,438.89524500002153,None,,,,,,,,,,,,,,,,,,,,,439.9161711000488,None,p,1.2242989999940619,439.9161711000488,None,439.9161711000488,None,439.9161711000488,None,439.9161711000488,None,439.9161711000488,None,439.9161711000488,None,439.9161711000488,None,439.9161711000488,None,439.9161711000488,None,439.9161711000488,None,439.9161711000488,None,439.9161711000488,None,439.9161711000488,None,,,,,,,m_pilot,001,2021_Sep_22_1803,shapka,2021.1.4,59.996928161825835,
2,5,pre,right,right.png,right.png,bas,Стулья,Брусья,furniture2.png,animal10.png,music1.png,tool4.png,298,298,-298,-298,316,-316,316,-316,"[200, 0]","[-200, 0]","[81, 81]","[81, 81]","[81, 81]","[81, 81]",2,None,None,None,None,None,None,None,None,298,298,-298,-298,298,298,-298,-298,85,-85,85,-85,200,-200,200,-200,"[81, 81]","[81, 81]","[81, 81]","[81, 81]","[81, 81]","[81, 81]","[81, 81]","[81, 81]",,,,,0,48,48,259,,,,,,,,,,,,,,,,,,,,,,,441.20560740004294,None,441.20560740004294,None,441.20560740004294,None,441.41218790004496,None,441.81676270003663,None,441.81676270003663,None,441.81676270003663,None,442.2286645999993,None,,,,,,,,,,,,,,,,,,,,,443.2444077000255,None,p,0.8079910000087693,443.2444077000255,None,443.2444077000255,None,443.2444077000255,None,443.2444077000255,None,443.2444077000255,None,443.2444077000255,None,443.2444077000255,None,443.2444077000255,None,443.2444077000255,None,443.2444077000255,None,443.2444077000255,None,443.2444077000255,None,443.2444077000255,None,,,,,,,m_pilot,001,2021_Sep_22_1803,shapka,2021.1.4,59.996928161825835,
1,9,pre,left,left.png,left.png,bas,Стулья,Брусья,furniture2.png,music5.png,car3.png,tool4.png,-298,-298,298,298,85,-85,85,-85,"[-200, 0]","[200, 0]","[81, 81]","[81, 81]","[81, 81]","[81, 81]",6,animal2.png,tool10.png,music8.png,car1.png,animal9.png,music1.png,animal6.png,music7.png,-298,-298,298,298,-298,-298,298,298,-316,316,-316,316,200,-200,200,-200,"[81, 81]","[81, 81]","[81, 81]","[81, 81]","[81, 81]","[81, 81]","[81, 81]","[81, 81]",,,,,0,49,49,156,,,,,,,,,,,,,,,,,,,,,,,444.1141094000195,None,444.1141094000195,None,444.1141094000195,None,444.3288559000357,None,444.73094600002514,None,444.73094600002514,None,444.73094600002514,None,445.14545090001775,None,,,,,,,,,,,,,,,,,,,,,446.1806435000035,None,p,0.911949299974367,446.1806435000035,None,446.1806435000035,None,446.1806435000035,None,446.1806435000035,None,446.1806435000035,None,446.1806435000035,None,446.1806435000035,None,446.1806435000035,None,446.1806435000035,None,446.1806435000035,None,446.1806435000035,None,446.1806435000035,None,446.1806435000035,None,,,,,,,m_pilot,001,2021_Sep_22_1803,shapka,2021.1.4,59.996928161825835,
1,9,pre,left,left.png,left.png,bas,Стулья,Брусья,furniture5.png,tool9.png,animal8.png,car7.png,-298,-298,298,298,85,-85,85,-85,"[-200, 0]","[200, 0]","[81, 81]","[81, 81]","[81, 81]","[81, 81]",6,music1.png,music2.png,music5.png,music3.png,music4.png,animal1.png,tool6.png,music10.png,-298,-298,298,298,-298,-298,298,298,-316,316,-316,316,-200,200,-200,200,"[81, 81]","[81, 81]","[81, 81]","[81, 81]","[81, 81]","[81, 81]","[81, 81]","[81, 81]",,,,,0,50,50,153,,,,,,,,,,,,,,,,,,,,,,,447.133231600048,None,447.133231600048,None,447.133231600048,None,447.3457945000264,None,447.7474407000118,None,447.7474407000118,None,447.7474407000118,None,448.1624770000344,None,,,,,,,,,,,,,,,,,,,,,449.19189120002557,None,p,0.9166972999810241,449.19189120002557,None,449.19189120002557,None,449.19189120002557,None,449.19189120002557,None,449.19189120002557,None,449.19189120002557,None,449.19189120002557,None,449.19189120002557,None,449.19189120002557,None,449.19189120002557,None,449.19189120002557,None,449.19189120002557,None,449.19189120002557,None,,,,,,,m_pilot,001,2021_Sep_22_1803,shapka,2021.1.4,59.996928161825835,
1,8,abs,left,left.png,left.png,non,Стулья,Брусья,music2.png,music7.png,car9.png,animal1.png,-298,-298,298,298,316,-316,316,-316,"[-200, 0]","[200, 0]","[81, 81]","[81, 81]","[81, 81]","[81, 81]",4,tool4.png,animal2.png,music3.png,car5.png,None,None,None,None,-298,-298,298,298,-298,-298,298,298,-85,85,-85,85,200,-200,200,-200,"[81, 81]","[81, 81]","[81, 81]","[81, 81]","[81, 81]","[81, 81]","[81, 81]","[81, 81]",,,,,0,51,51,17,,,,,,,,,,,,,,,,,,,,,,,450.1500074000214,None,450.1500074000214,None,450.1500074000214,None,450.36255640001036,None,450.76379390002694,None,450.76379390002694,None,450.76379390002694,None,451.1790179000236,None,,,,,,,,,,,,,,,,,,,,,452.20271169999614,None,a,1.8898871999699622,452.20271169999614,None,452.20271169999614,None,452.20271169999614,None,452.20271169999614,None,452.20271169999614,None,452.20271169999614,None,452.20271169999614,None,452.20271169999614,None,452.20271169999614,None,452.20271169999614,None,452.20271169999614,None,452.20271169999614,None,452.20271169999614,None,,,,,,,m_pilot,001,2021_Sep_22_1803,shapka,2021.1.4,59.996928161825835,
2,9,pre,right,right.png,right.png,bas,Рубашки,Барашки,clothes2.png,tool8.png,animal1.png,tool9.png,298,298,-298,-298,85,-85,85,-85,"[200, 0]","[-200, 0]","[81, 81]","[81, 81]","[81, 81]","[81, 81]",6,car4.png,music2.png,animal7.png,music5.png,car6.png,animal10.png,car1.png,animal3.png,298,298,-298,-298,298,298,-298,-298,-316,316,-316,316,-200,200,-200,200,"[81, 81]","[81, 81]","[81, 81]","[81, 81]","[81, 81]","[81, 81]","[81, 81]","[81, 81]",,,,,0,52,52,252,,,,,,,,,,,,,,,,,,,,,,,454.1360569000244,None,454.1360569000244,None,454.1360569000244,None,454.3460277999984,None,454.7504073000164,None,454.7504073000164,None,454.7504073000164,None,455.16274440003326,None,,,,,,,,,,,,,,,,,,,,,456.1966090000351,None,p,2.015977200004272,456.1966090000351,None,456.1966090000351,None,456.1966090000351,None,456.1966090000351,None,456.1966090000351,None,456.1966090000351,None,456.1966090000351,None,456.1966090000351,None,456.1966090000351,None,456.1966090000351,None,456.1966090000351,None,456.1966090000351,None,456.1966090000351,None,,,,,,,m_pilot,001,2021_Sep_22_1803,shapka,2021.1.4,59.996928161825835,
2,9,pre,right,right.png,right.png,bas,Яблоки,Пряники,fruit5.png,music3.png,music1.png,animal10.png,298,298,-298,-298,200,-200,200,-200,"[200, 0]","[-200, 0]","[81, 81]","[81, 81]","[81, 81]","[81, 81]",6,music5.png,car4.png,car7.png,music9.png,car1.png,tool2.png,tool8.png,music6.png,298,298,-298,-298,298,298,-298,-298,85,-85,85,-85,-316,316,-316,316,"[81, 81]","[81, 81]","[81, 81]","[81, 81]","[81, 81]","[81, 81]","[81, 81]","[81, 81]",,,,,0,53,53,340,,,,,,,,,,,,,,,,,,,,,,,458.2532851000433,None,458.2532851000433,None,458.2532851000433,None,458.4629212000291,None,458.867375300033,None,458.867375300033,None,458.867375300033,None,459.2795862000203,None,,,,,,,,,,,,,,,,,,,,,460.3087529000477,None,p,1.4074719999916852,460.3087529000477,None,460.3087529000477,None,460.3087529000477,None,460.3087529000477,None,460.3087529000477,None,460.3087529000477,None,460.3087529000477,None,460.3087529000477,None,460.3087529000477,None,460.3087529000477,None,460.3087529000477,None,460.3087529000477,None,460.3087529000477,None,,,,,,,m_pilot,001,2021_Sep_22_1803,shapka,2021.1.4,59.996928161825835,
2,7,pre,right,right.png,right.png,bas,Чашки,Шашки,tableware3.png,tool7.png,car9.png,tool5.png,298,298,-298,-298,-85,85,-85,85,"[200, 0]","[-200, 0]","[81, 81]","[81, 81]","[81, 81]","[81, 81]",4,animal3.png,music2.png,music1.png,tool6.png,None,None,None,None,298,298,-298,-298,298,298,-298,-298,-316,316,-316,316,200,-200,200,-200,"[81, 81]","[81, 81]","[81, 81]","[81, 81]","[81, 81]","[81, 81]","[81, 81]","[81, 81]",,,,,0,54,54,301,,,,,,,,,,,,,,,,,,,,,,,461.7706518000341,None,461.7706518000341,None,461.7706518000341,None,461.97976950003067,None,462.384412000014,None,462.384412000014,None,462.384412000014,None,462.79610160004813,None,,,,,,,,,,,,,,,,,,,,,463.8247227999964,None,p,1.0915067999740131,463.8247227999964,None,463.8247227999964,None,463.8247227999964,None,463.8247227999964,None,463.8247227999964,None,463.8247227999964,None,463.8247227999964,None,463.8247227999964,None,463.8247227999964,None,463.8247227999964,None,463.8247227999964,None,463.8247227999964,None,463.8247227999964,None,,,,,,,m_pilot,001,2021_Sep_22_1803,shapka,2021.1.4,59.996928161825835,
2,9,pre,right,right.png,right.png,bas,Рубашки,Барашки,clothes3.png,animal7.png,car9.png,car2.png,298,298,-298,-298,-85,85,-85,85,"[200, 0]","[-200, 0]","[81, 81]","[81, 81]","[81, 81]","[81, 81]",6,tool4.png,music5.png,tool6.png,car1.png,car10.png,animal8.png,tool1.png,car3.png,298,298,-298,-298,298,298,-298,-298,316,-316,316,-316,-200,200,-200,200,"[81, 81]","[81, 81]","[81, 81]","[81, 81]","[81, 81]","[81, 81]","[81, 81]","[81, 81]",,,,,0,55,55,249,,,,,,,,,,,,,,,,,,,,,,,464.9723978000111,None,464.9723978000111,None,464.9723978000111,None,465.17963620001683,None,465.58616610005265,None,465.58616610005265,None,465.58616610005265,None,465.9964632000192,None,,,,,,,,,,,,,,,,,,,,,467.0328839000431,None,p,1.0514056999818422,467.0328839000431,None,467.0328839000431,None,467.0328839000431,None,467.0328839000431,None,467.0328839000431,None,467.0328839000431,None,467.0328839000431,None,467.0328839000431,None,467.0328839000431,None,467.0328839000431,None,467.0328839000431,None,467.0328839000431,None,467.0328839000431,None,,,,,,,m_pilot,001,2021_Sep_22_1803,shapka,2021.1.4,59.996928161825835,
1,9,pre,left,left.png,left.png,bas,Рубашки,Барашки,clothes1.png,animal1.png,tool5.png,tool6.png,-298,-298,298,298,-85,85,-85,85,"[-200, 0]","[200, 0]","[81, 81]","[81, 81]","[81, 81]","[81, 81]",6,music8.png,music3.png,car9.png,animal3.png,tool2.png,car10.png,tool4.png,music7.png,-298,-298,298,298,-298,-298,298,298,316,-316,316,-316,200,-200,200,-200,"[81, 81]","[81, 81]","[81, 81]","[81, 81]","[81, 81]","[81, 81]","[81, 81]","[81, 81]",,,,,0,56,56,127,,,,,,,,,,,,,,,,,,,,,,,468.14563000004273,None,468.14563000004273,None,468.14563000004273,None,468.34647710004356,None,468.7484117000131,None,468.7484117000131,None,468.7484117000131,None,469.1633926000213,None,,,,,,,,,,,,,,,,,,,,,470.1941671000095,None,a,1.3462367000174709,470.1941671000095,None,470.1941671000095,None,470.1941671000095,None,470.1941671000095,None,470.1941671000095,None,470.1941671000095,None,470.1941671000095,None,470.1941671000095,None,470.1941671000095,None,470.1941671000095,None,470.1941671000095,None,470.1941671000095,None,470.1941671000095,None,,,,,,,m_pilot,001,2021_Sep_22_1803,shapka,2021.1.4,59.996928161825835,
2,7,pre,right,right.png,right.png,bas,Яблоки,Пряники,fruit3.png,music10.png,music1.png,music8.png,298,298,-298,-298,-85,85,-85,85,"[200, 0]","[-200, 0]","[81, 81]","[81, 81]","[81, 81]","[81, 81]",4,car5.png,music4.png,tool9.png,tool1.png,None,None,None,None,298,298,-298,-298,298,298,-298,-298,-316,316,-316,316,200,-200,200,-200,"[81, 81]","[81, 81]","[81, 81]","[81, 81]","[81, 81]","[81, 81]","[81, 81]","[81, 81]",,,,,0,57,57,323,,,,,,,,,,,,,,,,,,,,,,,471.601229300024,None,471.601229300024,None,471.601229300024,None,471.81351820001146,None,472.2183361000498,None,472.2183361000498,None,472.2183361000498,None,472.630106800003,None,,,,,,,,,,,,,,,,,,,,,473.6621687000152,None,p,0.782452600018587,473.6621687000152,None,473.6621687000152,None,473.6621687000152,None,473.6621687000152,None,473.6621687000152,None,473.6621687000152,None,473.6621687000152,None,473.6621687000152,None,473.6621687000152,None,473.6621687000152,None,473.6621687000152,None,473.6621687000152,None,473.6621687000152,None,,,,,,,m_pilot,001,2021_Sep_22_1803,shapka,2021.1.4,59.996928161825835,
2,6,abs,right,right.png,right.png,non,Стулья,Брусья,car7.png,music7.png,animal4.png,music2.png,298,298,-298,-298,-316,316,-316,316,"[200, 0]","[-200, 0]","[81, 81]","[81, 81]","[81, 81]","[81, 81]",2,None,None,None,None,None,None,None,None,298,298,-298,-298,298,298,-298,-298,-85,85,-85,85,-200,200,-200,200,"[81, 81]","[81, 81]","[81, 81]","[81, 81]","[81, 81]","[81, 81]","[81, 81]","[81, 81]",,,,,0,58,58,63,,,,,,,,,,,,,,,,,,,,,,,474.4880601000041,None,474.4880601000041,None,474.4880601000041,None,474.69699200004106,None,475.1014352000202,None,475.1014352000202,None,475.1014352000202,None,475.5135205000406,None,,,,,,,,,,,,,,,,,,,,,476.5344823000487,None,a,1.173772900016047,476.5344823000487,None,476.5344823000487,None,476.5344823000487,None,476.5344823000487,None,476.5344823000487,None,476.5344823000487,None,476.5344823000487,None,476.5344823000487,None,476.5344823000487,None,476.5344823000487,None,476.5344823000487,None,476.5344823000487,None,476.5344823000487,None,,,,,,,m_pilot,001,2021_Sep_22_1803,shapka,2021.1.4,59.996928161825835,
2,8,abs,right,right.png,right.png,non,Чашки,Шашки,tool8.png,animal3.png,tool7.png,car1.png,298,298,-298,-298,-316,316,-316,316,"[200, 0]","[-200, 0]","[81, 81]","[81, 81]","[81, 81]","[81, 81]",4,car5.png,tool1.png,animal9.png,music8.png,None,None,None,None,298,298,-298,-298,298,298,-298,-298,85,-85,85,-85,200,-200,200,-200,"[81, 81]","[81, 81]","[81, 81]","[81, 81]","[81, 81]","[81, 81]","[81, 81]","[81, 81]",,,,,0,59,59,80,,,,,,,,,,,,,,,,,,,,,,,477.7610971000395,None,477.7610971000395,None,477.7610971000395,None,477.9636322000297,None,478.36814050003886,None,478.36814050003886,None,478.36814050003886,None,478.78044400003273,None,,,,,,,,,,,,,,,,,,,,,479.80353990005096,None,a,1.3529789000167511,479.80353990005096,None,479.80353990005096,None,479.80353990005096,None,479.80353990005096,None,479.80353990005096,None,479.80353990005096,None,479.80353990005096,None,479.80353990005096,None,479.80353990005096,None,479.80353990005096,None,479.80353990005096,None,479.80353990005096,None,479.80353990005096,None,,,,,,,m_pilot,001,2021_Sep_22_1803,shapka,2021.1.4,59.996928161825835,
1,9,pre,left,left.png,left.png,bas,Рубашки,Барашки,clothes4.png,car8.png,tool10.png,animal1.png,-298,-298,298,298,85,-85,85,-85,"[-200, 0]","[200, 0]","[81, 81]","[81, 81]","[81, 81]","[81, 81]",6,car4.png,car3.png,animal5.png,tool7.png,tool1.png,tool6.png,tool2.png,music9.png,-298,-298,298,298,-298,-298,298,298,316,-316,316,-316,200,-200,200,-200,"[81, 81]","[81, 81]","[81, 81]","[81, 81]","[81, 81]","[81, 81]","[81, 81]","[81, 81]",,,,,0,60,60,126,,,,,,,,,,,,,,,,,,,,,,,481.2011574000353,None,481.2011574000353,None,481.2011574000353,None,481.41395650000777,None,481.8184991000453,None,481.8184991000453,None,481.8184991000453,None,482.23049400001764,None,,,,,,,,,,,,,,,,,,,,,483.30372230004286,None,p,1.5804788999957964,483.30372230004286,None,483.30372230004286,None,483.30372230004286,None,483.30372230004286,None,483.30372230004286,None,483.30372230004286,None,483.30372230004286,None,483.30372230004286,None,483.30372230004286,None,483.30372230004286,None,483.30372230004286,None,483.30372230004286,None,483.30372230004286,None,,,,,,,m_pilot,001,2021_Sep_22_1803,shapka,2021.1.4,59.996928161825835,
2,7,pre,right,right.png,right.png,bas,Чашки,Шашки,tableware3.png,animal5.png,car3.png,music7.png,298,298,-298,-298,85,-85,85,-85,"[200, 0]","[-200, 0]","[81, 81]","[81, 81]","[81, 81]","[81, 81]",4,tool8.png,car1.png,tool2.png,music4.png,None,None,None,None,298,298,-298,-298,298,298,-298,-298,-316,316,-316,316,200,-200,200,-200,"[81, 81]","[81, 81]","[81, 81]","[81, 81]","[81, 81]","[81, 81]","[81, 81]","[81, 81]",,,,,0,61,61,298,,,,,,,,,,,,,,,,,,,,,,,484.93771620001644,None,484.93771620001644,None,484.93771620001644,None,485.14742110000225,None,485.5527352000354,None,485.5527352000354,None,485.5527352000354,None,485.9640288000228,None,,,,,,,,,,,,,,,,,,,,,486.98953230003826,None,p,2.8150245000142604,486.98953230003826,None,486.98953230003826,None,486.98953230003826,None,486.98953230003826,None,486.98953230003826,None,486.98953230003826,None,486.98953230003826,None,486.98953230003826,None,486.98953230003826,None,486.98953230003826,None,486.98953230003826,None,486.98953230003826,None,486.98953230003826,None,,,,,,,m_pilot,001,2021_Sep_22_1803,shapka,2021.1.4,59.996928161825835,
2,10,abs,right,right.png,right.png,non,Чашки,Шашки,animal5.png,car4.png,car5.png,tool1.png,298,298,-298,-298,316,-316,316,-316,"[200, 0]","[-200, 0]","[81, 81]","[81, 81]","[81, 81]","[81, 81]",6,music7.png,tool10.png,car2.png,music8.png,animal6.png,music3.png,tool9.png,animal9.png,298,298,-298,-298,298,298,-298,-298,85,-85,85,-85,-200,200,-200,200,"[81, 81]","[81, 81]","[81, 81]","[81, 81]","[81, 81]","[81, 81]","[81, 81]","[81, 81]",,,,,0,62,62,84,,,,,,,,,,,,,,,,,,,,,,,489.8534613000229,None,489.8534613000229,None,489.8534613000229,None,490.0642720000469,None,490.4655943000107,None,490.4655943000107,None,490.4655943000107,None,490.88100520003354,None,,,,,,,,,,,,,,,,,,,,,491.90638850000687,None,a,1.754124699975364,491.90638850000687,None,491.90638850000687,None,491.90638850000687,None,491.90638850000687,None,491.90638850000687,None,491.90638850000687,None,491.90638850000687,None,491.90638850000687,None,491.90638850000687,None,491.90638850000687,None,491.90638850000687,None,491.90638850000687,None,491.90638850000687,None,,,,,,,m_pilot,001,2021_Sep_22_1803,shapka,2021.1.4,59.996928161825835,
1,7,pre,left,left.png,left.png,bas,Чашки,Шашки,tableware4.png,car3.png,music1.png,car6.png,-298,-298,298,298,85,-85,85,-85,"[-200, 0]","[200, 0]","[81, 81]","[81, 81]","[81, 81]","[81, 81]",4,music2.png,music8.png,music4.png,animal9.png,None,None,None,None,-298,-298,298,298,-298,-298,298,298,-316,316,-316,316,200,-200,200,-200,"[81, 81]","[81, 81]","[81, 81]","[81, 81]","[81, 81]","[81, 81]","[81, 81]","[81, 81]",,,,,0,63,63,178,,,,,,,,,,,,,,,,,,,,,,,493.7012739000493,None,493.7012739000493,None,493.7012739000493,None,493.91447380004684,None,494.3156508000102,None,494.3156508000102,None,494.3156508000102,None,494.73117159999674,None,,,,,,,,,,,,,,,,,,,,,495.75799710000865,None,p,0.8942035000072792,495.75799710000865,None,495.75799710000865,None,495.75799710000865,None,495.75799710000865,None,495.75799710000865,None,495.75799710000865,None,495.75799710000865,None,495.75799710000865,None,495.75799710000865,None,495.75799710000865,None,495.75799710000865,None,495.75799710000865,None,495.75799710000865,None,,,,,,,m_pilot,001,2021_Sep_22_1803,shapka,2021.1.4,59.996928161825835,
2,9,pre,right,right.png,right.png,bas,Яблоки,Пряники,fruit1.png,tool1.png,tool3.png,car8.png,298,298,-298,-298,-200,200,-200,200,"[200, 0]","[-200, 0]","[81, 81]","[81, 81]","[81, 81]","[81, 81]",6,tool6.png,music9.png,animal7.png,animal4.png,animal10.png,tool5.png,tool2.png,music6.png,298,298,-298,-298,298,298,-298,-298,85,-85,85,-85,-316,316,-316,316,"[81, 81]","[81, 81]","[81, 81]","[81, 81]","[81, 81]","[81, 81]","[81, 81]","[81, 81]",,,,,0,64,64,336,,,,,,,,,,,,,,,,,,,,,,,496.70707170001697,None,496.70707170001697,None,496.70707170001697,None,496.91449600004125,None,497.31918170000426,None,497.31918170000426,None,497.31918170000426,None,497.73107480001636,None,,,,,,,,,,,,,,,,,,,,,498.7674099000287,None,p,0.9889391000033356,498.7674099000287,None,498.7674099000287,None,498.7674099000287,None,498.7674099000287,None,498.7674099000287,None,498.7674099000287,None,498.7674099000287,None,498.7674099000287,None,498.7674099000287,None,498.7674099000287,None,498.7674099000287,None,498.7674099000287,None,498.7674099000287,None,,,,,,,m_pilot,001,2021_Sep_22_1803,shapka,2021.1.4,59.996928161825835,
2,10,abs,right,right.png,right.png,non,Яблоки,Пряники,music10.png,tool1.png,car8.png,tool6.png,298,298,-298,-298,-316,316,-316,316,"[200, 0]","[-200, 0]","[81, 81]","[81, 81]","[81, 81]","[81, 81]",6,animal7.png,tool4.png,animal10.png,car1.png,car2.png,tool5.png,animal9.png,music3.png,298,298,-298,-298,298,298,-298,-298,85,-85,85,-85,200,-200,200,-200,"[81, 81]","[81, 81]","[81, 81]","[81, 81]","[81, 81]","[81, 81]","[81, 81]","[81, 81]",,,,,0,65,65,100,,,,,,,,,,,,,,,,,,,,,,,499.82597050000913,None,499.82597050000913,None,499.82597050000913,None,500.03144420002354,None,500.4327876000316,None,500.4327876000316,None,500.4327876000316,None,500.8480726000271,None,,,,,,,,,,,,,,,,,,,,,501.88431610004045,None,a,1.0561920999898575,501.88431610004045,None,501.88431610004045,None,501.88431610004045,None,501.88431610004045,None,501.88431610004045,None,501.88431610004045,None,501.88431610004045,None,501.88431610004045,None,501.88431610004045,None,501.88431610004045,None,501.88431610004045,None,501.88431610004045,None,501.88431610004045,None,,,,,,,m_pilot,001,2021_Sep_22_1803,shapka,2021.1.4,59.996928161825835,
1,8,abs,left,left.png,left.png,non,Яблоки,Пряники,music4.png,music6.png,tool3.png,car2.png,-298,-298,298,298,-316,316,-316,316,"[-200, 0]","[200, 0]","[81, 81]","[81, 81]","[81, 81]","[81, 81]",4,animal1.png,car7.png,tool5.png,tool10.png,None,None,None,None,-298,-298,298,298,-298,-298,298,298,85,-85,85,-85,200,-200,200,-200,"[81, 81]","[81, 81]","[81, 81]","[81, 81]","[81, 81]","[81, 81]","[81, 81]","[81, 81]",,,,,0,66,66,44,,,,,,,,,,,,,,,,,,,,,,,502.98475620005047,None,502.98475620005047,None,502.98475620005047,None,503.1980734000099,None,503.60480970004573,None,503.60480970004573,None,503.60480970004573,None,504.0148178000236,None,,,,,,,,,,,,,,,,,,,,,505.04392690001987,None,a,1.6724871000042185,505.04392690001987,None,505.04392690001987,None,505.04392690001987,None,505.04392690001987,None,505.04392690001987,None,505.04392690001987,None,505.04392690001987,None,505.04392690001987,None,505.04392690001987,None,505.04392690001987,None,505.04392690001987,None,505.04392690001987,None,505.04392690001987,None,,,,,,,m_pilot,001,2021_Sep_22_1803,shapka,2021.1.4,59.996928161825835,
1,5,pre,left,left.png,left.png,bas,Чашки,Шашки,tableware5.png,animal5.png,animal10.png,tool1.png,-298,-298,298,298,-316,316,-316,316,"[-200, 0]","[200, 0]","[81, 81]","[81, 81]","[81, 81]","[81, 81]",2,None,None,None,None,None,None,None,None,-298,-298,298,298,-298,-298,298,298,-85,85,-85,85,-200,200,-200,200,"[81, 81]","[81, 81]","[81, 81]","[81, 81]","[81, 81]","[81, 81]","[81, 81]","[81, 81]",,,,,0,67,67,169,,,,,,,,,,,,,,,,,,,,,,,506.75191110000014,None,506.75191110000014,None,506.75191110000014,None,506.9650551000377,None,507.3694252000423,None,507.3694252000423,None,507.3694252000423,None,507.78155700000934,None,,,,,,,,,,,,,,,,,,,,,508.80569560005097,None,p,1.558646499994211,508.80569560005097,None,508.80569560005097,None,508.80569560005097,None,508.80569560005097,None,508.80569560005097,None,508.80569560005097,None,508.80569560005097,None,508.80569560005097,None,508.80569560005097,None,508.80569560005097,None,508.80569560005097,None,508.80569560005097,None,508.80569560005097,None,,,,,,,m_pilot,001,2021_Sep_22_1803,shapka,2021.1.4,59.996928161825835,
2,9,pre,right,right.png,right.png,bas,Яблоки,Пряники,fruit2.png,tool5.png,music1.png,tool8.png,298,298,-298,-298,200,-200,200,-200,"[200, 0]","[-200, 0]","[81, 81]","[81, 81]","[81, 81]","[81, 81]",6,music3.png,tool10.png,tool2.png,car1.png,animal9.png,tool7.png,animal4.png,tool6.png,298,298,-298,-298,298,298,-298,-298,85,-85,85,-85,316,-316,316,-316,"[81, 81]","[81, 81]","[81, 81]","[81, 81]","[81, 81]","[81, 81]","[81, 81]","[81, 81]",,,,,0,68,68,341,,,,,,,,,,,,,,,,,,,,,,,510.41034970001783,None,510.41034970001783,None,510.41034970001783,None,510.6150900000357,None,511.0211976999999,None,511.0211976999999,None,511.0211976999999,None,511.43178700003773,None,,,,,,,,,,,,,,,,,,,,,512.4681856000097,None,p,0.9122077999636531,512.4681856000097,None,512.4681856000097,None,512.4681856000097,None,512.4681856000097,None,512.4681856000097,None,512.4681856000097,None,512.4681856000097,None,512.4681856000097,None,512.4681856000097,None,512.4681856000097,None,512.4681856000097,None,512.4681856000097,None,512.4681856000097,None,,,,,,,m_pilot,001,2021_Sep_22_1803,shapka,2021.1.4,59.996928161825835,
2,7,pre,right,right.png,right.png,bas,Стулья,Брусья,furniture2.png,animal2.png,tool7.png,tool8.png,298,298,-298,-298,-85,85,-85,85,"[200, 0]","[-200, 0]","[81, 81]","[81, 81]","[81, 81]","[81, 81]",4,music1.png,animal3.png,music4.png,music9.png,None,None,None,None,298,298,-298,-298,298,298,-298,-298,316,-316,316,-316,200,-200,200,-200,"[81, 81]","[81, 81]","[81, 81]","[81, 81]","[81, 81]","[81, 81]","[81, 81]","[81, 81]",,,,,0,69,69,267,,,,,,,,,,,,,,,,,,,,,,,513.4358030000003,None,513.4358030000003,None,513.4358030000003,None,513.6486753000063,None,514.0530024000327,None,514.0530024000327,None,514.0530024000327,None,514.465040500043,None,,,,,,,,,,,,,,,,,,,,,515.4909536000341,None,p,1.4737250999896787,515.4909536000341,None,515.4909536000341,None,515.4909536000341,None,515.4909536000341,None,515.4909536000341,None,515.4909536000341,None,515.4909536000341,None,515.4909536000341,None,515.4909536000341,None,515.4909536000341,None,515.4909536000341,None,515.4909536000341,None,515.4909536000341,None,,,,,,,m_pilot,001,2021_Sep_22_1803,shapka,2021.1.4,59.996928161825835,
2,7,pre,right,right.png,right.png,bas,Стулья,Брусья,furniture2.png,animal5.png,animal1.png,tool10.png,298,298,-298,-298,-85,85,-85,85,"[200, 0]","[-200, 0]","[81, 81]","[81, 81]","[81, 81]","[81, 81]",4,tool8.png,music1.png,car6.png,tool3.png,None,None,None,None,298,298,-298,-298,298,298,-298,-298,316,-316,316,-316,200,-200,200,-200,"[81, 81]","[81, 81]","[81, 81]","[81, 81]","[81, 81]","[81, 81]","[81, 81]","[81, 81]",,,,,0,70,70,266,,,,,,,,,,,,,,,,,,,,,,,517.0049391000066,None,517.0049391000066,None,517.0049391000066,None,517.2152551000472,None,517.6167455000104,None,517.6167455000104,None,517.6167455000104,None,518.0321506000473,None,,,,,,,,,,,,,,,,,,,,,519.0529103000299,None,p,1.3435440000030212,519.0529103000299,None,519.0529103000299,None,519.0529103000299,None,519.0529103000299,None,519.0529103000299,None,519.0529103000299,None,519.0529103000299,None,519.0529103000299,None,519.0529103000299,None,519.0529103000299,None,519.0529103000299,None,519.0529103000299,None,519.0529103000299,None,,,,,,,m_pilot,001,2021_Sep_22_1803,shapka,2021.1.4,59.996928161825835,
2,7,pre,right,right.png,right.png,bas,Чашки,Шашки,tableware4.png,car10.png,music3.png,tool1.png,298,298,-298,-298,-85,85,-85,85,"[200, 0]","[-200, 0]","[81, 81]","[81, 81]","[81, 81]","[81, 81]",4,animal8.png,car6.png,tool4.png,car7.png,None,None,None,None,298,298,-298,-298,298,298,-298,-298,-316,316,-316,316,200,-200,200,-200,"[81, 81]","[81, 81]","[81, 81]","[81, 81]","[81, 81]","[81, 81]","[81, 81]","[81, 81]",,,,,0,71,71,302,,,,,,,,,,,,,,,,,,,,,,,520.4380689000245,None,520.4380689000245,None,520.4380689000245,None,520.6489936000435,None,521.0535766000394,None,521.0535766000394,None,521.0535766000394,None,521.4656853000051,None,,,,,,,,,,,,,,,,,,,,,522.4891430000425,None,p,0.7713159000268206,522.4891430000425,None,522.4891430000425,None,522.4891430000425,None,522.4891430000425,None,522.4891430000425,None,522.4891430000425,None,522.4891430000425,None,522.4891430000425,None,522.4891430000425,None,522.4891430000425,None,522.4891430000425,None,522.4891430000425,None,522.4891430000425,None,,,,,,,m_pilot,001,2021_Sep_22_1803,shapka,2021.1.4,59.996928161825835,
2,9,pre,right,right.png,right.png,bas,Чашки,Шашки,tableware3.png,music3.png,music10.png,animal1.png,298,298,-298,-298,-200,200,-200,200,"[200, 0]","[-200, 0]","[81, 81]","[81, 81]","[81, 81]","[81, 81]",6,animal9.png,music8.png,car1.png,animal4.png,music5.png,animal7.png,car6.png,car2.png,298,298,-298,-298,298,298,-298,-298,85,-85,85,-85,316,-316,316,-316,"[81, 81]","[81, 81]","[81, 81]","[81, 81]","[81, 81]","[81, 81]","[81, 81]","[81, 81]",,,,,0,72,72,303,,,,,,,,,,,,,,,,,,,,,,,523.3085428000195,None,523.3085428000195,None,523.3085428000195,None,523.5157985000405,None,523.9169154000119,None,523.9169154000119,None,523.9169154000119,None,524.3323841000092,None,,,,,,,,,,,,,,,,,,,,,525.3615516000427,None,p,0.9386536999954842,525.3615516000427,None,525.3615516000427,None,525.3615516000427,None,525.3615516000427,None,525.3615516000427,None,525.3615516000427,None,525.3615516000427,None,525.3615516000427,None,525.3615516000427,None,525.3615516000427,None,525.3615516000427,None,525.3615516000427,None,525.3615516000427,None,,,,,,,m_pilot,001,2021_Sep_22_1803,shapka,2021.1.4,59.996928161825835,
1,6,abs,left,left.png,left.png,non,Рубашки,Барашки,animal7.png,music4.png,car2.png,car10.png,-298,-298,298,298,-316,316,-316,316,"[-200, 0]","[200, 0]","[81, 81]","[81, 81]","[81, 81]","[81, 81]",2,None,None,None,None,None,None,None,None,-298,-298,298,298,-298,-298,298,298,-85,85,-85,85,-200,200,-200,200,"[81, 81]","[81, 81]","[81, 81]","[81, 81]","[81, 81]","[81, 81]","[81, 81]","[81, 81]",,,,,0,73,73,1,,,,,,,,,,,,,,,,,,,,,,,526.3476438000216,None,526.3476438000216,None,526.3476438000216,None,526.5491324000177,None,526.9549734000466,None,526.9549734000466,None,526.9549734000466,None,527.3659177000518,None,,,,,,,,,,,,,,,,,,,,,528.3819558999967,None,a,0.9503412999911234,528.3819558999967,None,528.3819558999967,None,528.3819558999967,None,528.3819558999967,None,528.3819558999967,None,528.3819558999967,None,528.3819558999967,None,528.3819558999967,None,528.3819558999967,None,528.3819558999967,None,528.3819558999967,None,528.3819558999967,None,528.3819558999967,None,,,,,,,m_pilot,001,2021_Sep_22_1803,shapka,2021.1.4,59.996928161825835,
2,5,pre,right,right.png,right.png,bas,Стулья,Брусья,furniture1.png,tool8.png,music9.png,car4.png,298,298,-298,-298,316,-316,316,-316,"[200, 0]","[-200, 0]","[81, 81]","[81, 81]","[81, 81]","[81, 81]",2,None,None,None,None,None,None,None,None,298,298,-298,-298,298,298,-298,-298,85,-85,85,-85,200,-200,200,-200,"[81, 81]","[81, 81]","[81, 81]","[81, 81]","[81, 81]","[81, 81]","[81, 81]","[81, 81]",,,,,0,74,74,257,,,,,,,,,,,,,,,,,,,,,,,529.3822057000361,None,529.3822057000361,None,529.3822057000361,None,529.5827685000258,None,529.9890269000316,None,529.9890269000316,None,529.9890269000316,None,530.3993061000365,None,,,,,,,,,,,,,,,,,,,,,531.4275023000082,None,p,0.7926894000265747,531.4275023000082,None,531.4275023000082,None,531.4275023000082,None,531.4275023000082,None,531.4275023000082,None,531.4275023000082,None,531.4275023000082,None,531.4275023000082,None,531.4275023000082,None,531.4275023000082,None,531.4275023000082,None,531.4275023000082,None,531.4275023000082,None,,,,,,,m_pilot,001,2021_Sep_22_1803,shapka,2021.1.4,59.996928161825835,
1,5,pre,left,left.png,left.png,bas,Рубашки,Барашки,clothes5.png,music2.png,car1.png,animal6.png,-298,-298,298,298,-316,316,-316,316,"[-200, 0]","[200, 0]","[81, 81]","[81, 81]","[81, 81]","[81, 81]",2,None,None,None,None,None,None,None,None,-298,-298,298,298,-298,-298,298,298,-85,85,-85,85,-200,200,-200,200,"[81, 81]","[81, 81]","[81, 81]","[81, 81]","[81, 81]","[81, 81]","[81, 81]","[81, 81]",,,,,0,75,75,109,,,,,,,,,,,,,,,,,,,,,,,532.2819030000246,None,532.2819030000246,None,532.2819030000246,None,532.4827315000002,None,532.8918714000029,None,532.8918714000029,None,532.8918714000029,None,533.2994372000103,None,,,,,,,,,,,,,,,,,,,,,534.3219218000304,None,a,1.3225849999580532,534.3219218000304,None,534.3219218000304,None,534.3219218000304,None,534.3219218000304,None,534.3219218000304,None,534.3219218000304,None,534.3219218000304,None,534.3219218000304,None,534.3219218000304,None,534.3219218000304,None,534.3219218000304,None,534.3219218000304,None,534.3219218000304,None,,,,,,,m_pilot,001,2021_Sep_22_1803,shapka,2021.1.4,59.996928161825835,
1,5,pre,left,left.png,left.png,bas,Яблоки,Пряники,fruit4.png,music9.png,tool1.png,tool8.png,-298,-298,298,298,316,-316,316,-316,"[-200, 0]","[200, 0]","[81, 81]","[81, 81]","[81, 81]","[81, 81]",2,None,None,None,None,None,None,None,None,-298,-298,298,298,-298,-298,298,298,85,-85,85,-85,200,-200,200,-200,"[81, 81]","[81, 81]","[81, 81]","[81, 81]","[81, 81]","[81, 81]","[81, 81]","[81, 81]",,,,,0,76,76,202,,,,,,,,,,,,,,,,,,,,,,,535.7037544000195,None,535.7037544000195,None,535.7037544000195,None,535.9157367000007,None,536.3158707999974,None,536.3158707999974,None,536.3158707999974,None,536.7163345000008,None,,,,,,,,,,,,,,,,,,,,,537.7286744000157,None,p,0.87552289996529,537.7286744000157,None,537.7286744000157,None,537.7286744000157,None,537.7286744000157,None,537.7286744000157,None,537.7286744000157,None,537.7286744000157,None,537.7286744000157,None,537.7286744000157,None,537.7286744000157,None,537.7286744000157,None,537.7286744000157,None,537.7286744000157,None,,,,,,,m_pilot,001,2021_Sep_22_1803,shapka,2021.1.4,59.996928161825835,
1,10,abs,left,left.png,left.png,non,Чашки,Шашки,animal10.png,animal9.png,car5.png,music8.png,-298,-298,298,298,-316,316,-316,316,"[-200, 0]","[200, 0]","[81, 81]","[81, 81]","[81, 81]","[81, 81]",6,car3.png,tool1.png,tool2.png,tool6.png,music7.png,animal4.png,music10.png,car1.png,-298,-298,298,298,-298,-298,298,298,-85,85,-85,85,-200,200,-200,200,"[81, 81]","[81, 81]","[81, 81]","[81, 81]","[81, 81]","[81, 81]","[81, 81]","[81, 81]",,,,,0,77,77,38,,,,,,,,,,,,,,,,,,,,,,,538.6699681000318,None,538.6699681000318,None,538.6699681000318,None,538.8831052000169,None,539.2875312000397,None,539.2875312000397,None,539.2875312000397,None,539.6997940000147,None,,,,,,,,,,,,,,,,,,,,,540.7349216000293,None,a,1.053254900034517,540.7349216000293,None,540.7349216000293,None,540.7349216000293,None,540.7349216000293,None,540.7349216000293,None,540.7349216000293,None,540.7349216000293,None,540.7349216000293,None,540.7349216000293,None,540.7349216000293,None,540.7349216000293,None,540.7349216000293,None,540.7349216000293,None,,,,,,,m_pilot,001,2021_Sep_22_1803,shapka,2021.1.4,59.996928161825835,
