arr_code,srch_code,type,semi_field,arr_1,arr_2,cat,target,target_2,s1,s2,s3,s4,x1,x2,x3,x4,y1,y2,y3,y4,postr,postr_2,ss1,ss2,ss3,ss4,set_size,s5,s6,s7,s8,s9,s10,s11,s12,x5,x6,x7,x8,x9,x10,x11,x12,y5,y6,y7,y8,y9,y10,y11,y12,ss5,ss6,ss7,ss8,ss9,ss10,ss11,ss12,train.thisRepN,train.thisTrialN,train.thisN,train.thisIndex,block_bas.thisRepN,block_bas.thisTrialN,block_bas.thisN,block_bas.thisIndex,block_sup.thisRepN,block_sup.thisTrialN,block_sup.thisN,block_sup.thisIndex,instruction.started,instruction.stopped,key_resp.keys,key_resp.rt,key_resp.started,key_resp.stopped,polygon.started,polygon.stopped,key_resp_2.keys,key_resp_2.rt,key_resp_2.started,key_resp_2.stopped,text.started,text.stopped,key_resp_3.keys,key_resp_3.rt,key_resp_3.started,key_resp_3.stopped,polygon_2.started,polygon_2.stopped,arr1.started,arr1.stopped,arr2.started,arr2.stopped,polygon_3.started,polygon_3.stopped,polygon_4.started,polygon_4.stopped,word1.started,word1.stopped,word2.started,word2.stopped,polygon_5.started,polygon_5.stopped,polygon_6.started,polygon_6.stopped,key_resp_4.keys,key_resp_4.started,key_resp_4.stopped,s_1.started,s_1.stopped,s_2.started,s_2.stopped,s_3.started,s_3.stopped,s_4.started,s_4.stopped,key_resp_4.rt,text_3.started,text_3.stopped,key_resp_5.keys,key_resp_5.rt,key_resp_5.started,key_resp_5.stopped,polygon_8.started,polygon_8.stopped,key_resp_6.keys,key_resp_6.started,key_resp_6.stopped,sti1.started,sti1.stopped,sti2.started,sti2.stopped,sti3.started,sti3.stopped,sti4.started,sti4.stopped,sti5.started,sti5.stopped,sti6.started,sti6.stopped,sti7.started,sti7.stopped,sti8.started,sti8.stopped,sti9.started,sti9.stopped,sti10.started,sti10.stopped,sti11.started,sti11.stopped,sti12.started,sti12.stopped,key_resp_6.rt,text_2.started,text_2.stopped,key_resp_7.keys,key_resp_7.rt,key_resp_7.started,key_resp_7.stopped,participant,session,date,expName,psychopyVersion,frameRate,
,,,,,,,,,,,,,,,,,,,,,,,,,,,,,,,,,,,,,,,,,,,,,,,,,,,,,,,,,,,,,,,,,,,,,,,,13.618023300019559,None,space,21.79877910000505,13.618023300019559,None,,,,,,,,,,,,,,,,,,,,,,,,,,,,,,,,,,,,,,,,,,,,,,,,,,,,,,,,,,,,,,,,,,,,,,,,,,,,,,,,,,,,,NIKFNS2,001,2021_Sep_24_1533,shapka,2021.1.4,60.05093519959452,
,,,,,,,,,,,,,,,,,,,,,,,,,,,,,,,,,,,,,,,,,,,,,,,,,,,,,,,,,,,,,,,,,,,,,,,,,,,,,,35.44257140002446,None,right,5.64687330002198,35.44257140002446,None,,,,,,,,,,,,,,,,,,,,,,,,,,,,,,,,,,,,,,,,,,,,,,,,,,,,,,,,,,,,,,,,,,,,,,,,,,,,,,,NIKFNS2,001,2021_Sep_24_1533,shapka,2021.1.4,60.05093519959452,
,,,,,,,,,,,,,,,,,,,,,,,,,,,,,,,,,,,,,,,,,,,,,,,,,,,,,,,,,,,,,,,,,,,,,,,,,,,,,,,,,,,,41.10950220003724,None,space,5.243131499970332,41.10950220003724,None,,,,,,,,,,,,,,,,,,,,,,,,,,,,,,,,,,,,,,,,,,,,,,,,,,,,,,,,,,,,,,,,,,,,,,,,,NIKFNS2,001,2021_Sep_24_1533,shapka,2021.1.4,60.05093519959452,
2,5,pre,right,right.png,right.png,sup,Посуда,Валюта,tableware2.png,animal2.png,music2.png,animal3.png,298,298,-298,-298,-316,316,-316,316,"[200, 0]","[-200, 0]","[104, 104]","[104, 104]","[104, 104]","[104, 104]",,,,,,,,,,,,,,,,,,,,,,,,,,,,,,,,,,0,0,0,13,,,,,,,,,,,,,,,,,,,,,,,,,,,46.498406400030944,None,46.498406400030944,None,46.498406400030944,None,46.59282359998906,None,47.01850619999459,None,47.01850619999459,None,47.01850619999459,None,47.39285370003199,None,48.408657199994195,None,None,48.408657199994195,None,48.408657199994195,None,48.408657199994195,None,48.408657199994195,None,48.408657199994195,None,,,,,,,,,,,,,,,,,,,,,,,,,,,,,,,,,,,,,,,,,,,,NIKFNS2,001,2021_Sep_24_1533,shapka,2021.1.4,60.05093519959452,
2,5,pre,right,right.png,right.png,sup,Мебель,Стебель,furniture5.png,music1.png,car4.png,tool5.png,298,298,-298,-298,316,-316,316,-316,"[200, 0]","[-200, 0]","[104, 104]","[104, 104]","[104, 104]","[104, 104]",,,,,,,,,,,,,,,,,,,,,,,,,,,,,,,,,,0,1,1,11,,,,,,,,,,,,,,,,,,,,,,,,,,,52.431480500032194,None,52.431480500032194,None,52.431480500032194,None,52.59321750001982,None,53.01281600003131,None,53.01281600003131,None,53.01281600003131,None,53.39329320000252,None,54.40787540003657,None,p,54.40787540003657,None,54.40787540003657,None,54.40787540003657,None,54.40787540003657,None,54.40787540003657,None,1.8967050000210293,,,,,,,,,,,,,,,,,,,,,,,,,,,,,,,,,,,,,,,,,,,NIKFNS2,001,2021_Sep_24_1533,shapka,2021.1.4,60.05093519959452,
1,5,pre,left,left.png,left.png,bas,Рубашки,Барашки,clothes1.png,tool6.png,animal1.png,music2.png,-298,-298,298,298,-316,316,-316,316,"[-200, 0]","[200, 0]","[104, 104]","[104, 104]","[104, 104]","[104, 104]",,,,,,,,,,,,,,,,,,,,,,,,,,,,,,,,,,0,2,2,6,,,,,,,,,,,,,,,,,,,,,,,,,,,56.368696100020315,None,56.368696100020315,None,56.368696100020315,None,56.57677440001862,None,56.98747860000003,None,56.98747860000003,None,56.98747860000003,None,57.39332360000117,None,58.40828440000769,None,None,58.40828440000769,None,58.40828440000769,None,58.40828440000769,None,58.40828440000769,None,58.40828440000769,None,,,,,,,,,,,,,,,,,,,,,,,,,,,,,,,,,,,,,,,,,,,,NIKFNS2,001,2021_Sep_24_1533,shapka,2021.1.4,60.05093519959452,
2,5,pre,right,right.png,right.png,bas,Стулья,Брусья,furniture4.png,music5.png,music3.png,tool4.png,298,298,-298,-298,316,-316,316,-316,"[200, 0]","[-200, 0]","[104, 104]","[104, 104]","[104, 104]","[104, 104]",,,,,,,,,,,,,,,,,,,,,,,,,,,,,,,,,,0,3,3,10,,,,,,,,,,,,,,,,,,,,,,,,,,,62.43731750000734,None,62.43731750000734,None,62.43731750000734,None,62.64366619999055,None,63.06395410001278,None,63.06395410001278,None,63.06395410001278,None,63.476948100025766,None,64.49257210001815,None,p,64.49257210001815,None,64.49257210001815,None,64.49257210001815,None,64.49257210001815,None,64.49257210001815,None,3.356188800011296,,,,,,,,,,,,,,,,,,,,,,,,,,,,,,,,,,,,,,,,,,,NIKFNS2,001,2021_Sep_24_1533,shapka,2021.1.4,60.05093519959452,
2,6,abs,right,right.png,right.png,sup,Фрукты,Бухты,car8.png,music2.png,car2.png,car1.png,298,298,-298,-298,316,-316,316,-316,"[200, 0]","[-200, 0]","[104, 104]","[104, 104]","[104, 104]","[104, 104]",,,,,,,,,,,,,,,,,,,,,,,,,,,,,,,,,,0,4,4,9,,,,,,,,,,,,,,,,,,,,,,,,,,,67.92043420003029,None,67.92043420003029,None,67.92043420003029,None,68.12713229999645,None,68.54856820002897,None,68.54856820002897,None,68.54856820002897,None,68.96047130000079,None,69.98100160004105,None,None,69.98100160004105,None,69.98100160004105,None,69.98100160004105,None,69.98100160004105,None,69.98100160004105,None,,,,,,,,,,,,,,,,,,,,,,,,,,,,,,,,,,,,,,,,,,,,NIKFNS2,001,2021_Sep_24_1533,shapka,2021.1.4,60.05093519959452,
1,6,abs,left,left.png,left.png,bas,Яблоки,Пряники,tool1.png,tool4.png,car1.png,animal1.png,-298,-298,298,298,316,-316,316,-316,"[-200, 0]","[200, 0]","[104, 104]","[104, 104]","[104, 104]","[104, 104]",,,,,,,,,,,,,,,,,,,,,,,,,,,,,,,,,,0,5,5,0,,,,,,,,,,,,,,,,,,,,,,,,,,,74.02207930001896,None,74.02207930001896,None,74.02207930001896,None,74.22734829998808,None,74.63484420004534,None,74.63484420004534,None,74.63484420004534,None,75.04410600004485,None,76.07475980004529,None,a,76.07475980004529,None,76.07475980004529,None,76.07475980004529,None,76.07475980004529,None,76.07475980004529,None,3.3978131000185385,,,,,,,,,,,,,,,,,,,,,,,,,,,,,,,,,,,,,,,,,,,NIKFNS2,001,2021_Sep_24_1533,shapka,2021.1.4,60.05093519959452,
2,6,abs,right,right.png,right.png,bas,Яблоки,Пряники,animal4.png,music3.png,tool4.png,tool6.png,298,298,-298,-298,316,-316,316,-316,"[200, 0]","[-200, 0]","[104, 104]","[104, 104]","[104, 104]","[104, 104]",,,,,,,,,,,,,,,,,,,,,,,,,,,,,,,,,,0,6,6,8,,,,,,,,,,,,,,,,,,,,,,,,,,,79.53564050002024,None,79.53564050002024,None,79.53564050002024,None,79.74436990002869,None,80.14668609999353,None,80.14668609999353,None,80.14668609999353,None,80.56102309998823,None,81.57538310001837,None,None,81.57538310001837,None,81.57538310001837,None,81.57538310001837,None,81.57538310001837,None,81.57538310001837,None,,,,,,,,,,,,,,,,,,,,,,,,,,,,,,,,,,,,,,,,,,,,NIKFNS2,001,2021_Sep_24_1533,shapka,2021.1.4,60.05093519959452,
1,5,pre,left,left.png,left.png,bas,Стулья,Брусья,furniture1.png,car4.png,tool5.png,tool2.png,-298,-298,298,298,316,-316,316,-316,"[-200, 0]","[200, 0]","[104, 104]","[104, 104]","[104, 104]","[104, 104]",,,,,,,,,,,,,,,,,,,,,,,,,,,,,,,,,,0,7,7,2,,,,,,,,,,,,,,,,,,,,,,,,,,,85.60827680001967,None,85.60827680001967,None,85.60827680001967,None,85.81144010002026,None,86.21816600003513,None,86.21816600003513,None,86.21816600003513,None,86.62792090000585,None,87.64712450001389,None,p,87.64712450001389,None,87.64712450001389,None,87.64712450001389,None,87.64712450001389,None,87.64712450001389,None,1.0652982000028715,,,,,,,,,,,,,,,,,,,,,,,,,,,,,,,,,,,,,,,,,,,NIKFNS2,001,2021_Sep_24_1533,shapka,2021.1.4,60.05093519959452,
2,5,pre,right,right.png,right.png,bas,Рубашки,Барашки,clothes5.png,music4.png,animal6.png,tool1.png,298,298,-298,-298,-316,316,-316,316,"[200, 0]","[-200, 0]","[104, 104]","[104, 104]","[104, 104]","[104, 104]",,,,,,,,,,,,,,,,,,,,,,,,,,,,,,,,,,0,8,8,14,,,,,,,,,,,,,,,,,,,,,,,,,,,88.77056910004467,None,88.77056910004467,None,88.77056910004467,None,88.97818580002058,None,89.38407170004211,None,89.38407170004211,None,89.38407170004211,None,89.79468859999906,None,90.81359149998752,None,p,90.81359149998752,None,90.81359149998752,None,90.81359149998752,None,90.81359149998752,None,90.81359149998752,None,2.3870985000394285,,,,,,,,,,,,,,,,,,,,,,,,,,,,,,,,,,,,,,,,,,,NIKFNS2,001,2021_Sep_24_1533,shapka,2021.1.4,60.05093519959452,
1,5,pre,left,left.png,left.png,sup,Одежда,Невежда,clothes2.png,animal6.png,tool6.png,tool1.png,-298,-298,298,298,-316,316,-316,316,"[-200, 0]","[200, 0]","[104, 104]","[104, 104]","[104, 104]","[104, 104]",,,,,,,,,,,,,,,,,,,,,,,,,,,,,,,,,,0,9,9,7,,,,,,,,,,,,,,,,,,,,,,,,,,,93.2682604000438,None,93.2682604000438,None,93.2682604000438,None,93.47822550003184,None,93.88892080000369,None,93.88892080000369,None,93.88892080000369,None,94.29486399999587,None,95.30777640000451,None,p,95.30777640000451,None,95.30777640000451,None,95.30777640000451,None,95.30777640000451,None,95.30777640000451,None,2.3406254000146873,,,,,,,,,,,,,,,,,,,,,,,,,,,,,,,,,,,,,,,,,,,NIKFNS2,001,2021_Sep_24_1533,shapka,2021.1.4,60.05093519959452,
1,5,pre,left,left.png,left.png,sup,Мебель,Стебель,furniture2.png,tool5.png,music1.png,animal6.png,-298,-298,298,298,316,-316,316,-316,"[-200, 0]","[200, 0]","[104, 104]","[104, 104]","[104, 104]","[104, 104]",,,,,,,,,,,,,,,,,,,,,,,,,,,,,,,,,,0,10,10,3,,,,,,,,,,,,,,,,,,,,,,,,,,,97.71375799999805,None,97.71375799999805,None,97.71375799999805,None,97.92848679999588,None,98.3334007000085,None,98.3334007000085,None,98.3334007000085,None,98.74515420000535,None,99.76662830001442,None,p,99.76662830001442,None,99.76662830001442,None,99.76662830001442,None,99.76662830001442,None,99.76662830001442,None,2.0177687000250444,,,,,,,,,,,,,,,,,,,,,,,,,,,,,,,,,,,,,,,,,,,NIKFNS2,001,2021_Sep_24_1533,shapka,2021.1.4,60.05093519959452,
1,5,pre,left,left.png,left.png,bas,Чашки,Шашки,tableware3.png,car2.png,animal2.png,music3.png,-298,-298,298,298,-316,316,-316,316,"[-200, 0]","[200, 0]","[104, 104]","[104, 104]","[104, 104]","[104, 104]",,,,,,,,,,,,,,,,,,,,,,,,,,,,,,,,,,0,11,11,4,,,,,,,,,,,,,,,,,,,,,,,,,,,101.84106609999435,None,101.84106609999435,None,101.84106609999435,None,102.04541730001802,None,102.4546797000221,None,102.4546797000221,None,102.4546797000221,None,102.86196890001884,None,103.8767446000129,None,p,103.8767446000129,None,103.8767446000129,None,103.8767446000129,None,103.8767446000129,None,103.8767446000129,None,1.459758499986492,,,,,,,,,,,,,,,,,,,,,,,,,,,,,,,,,,,,,,,,,,,NIKFNS2,001,2021_Sep_24_1533,shapka,2021.1.4,60.05093519959452,
2,5,pre,right,right.png,right.png,bas,Чашки,Шашки,tableware1.png,tool1.png,music5.png,music1.png,298,298,-298,-298,-316,316,-316,316,"[200, 0]","[-200, 0]","[104, 104]","[104, 104]","[104, 104]","[104, 104]",,,,,,,,,,,,,,,,,,,,,,,,,,,,,,,,,,0,12,12,12,,,,,,,,,,,,,,,,,,,,,,,,,,,105.39895629999228,None,105.39895629999228,None,105.39895629999228,None,105.61212350003188,None,106.01455100002931,None,106.01455100002931,None,106.01455100002931,None,106.42874619999202,None,107.4498661000398,None,p,107.4498661000398,None,107.4498661000398,None,107.4498661000398,None,107.4498661000398,None,107.4498661000398,None,1.1586798999924213,,,,,,,,,,,,,,,,,,,,,,,,,,,,,,,,,,,,,,,,,,,NIKFNS2,001,2021_Sep_24_1533,shapka,2021.1.4,60.05093519959452,
2,5,pre,right,right.png,right.png,sup,Одежда,Невежда,clothes3.png,car1.png,tool1.png,car4.png,298,298,-298,-298,-316,316,-316,316,"[200, 0]","[-200, 0]","[104, 104]","[104, 104]","[104, 104]","[104, 104]",,,,,,,,,,,,,,,,,,,,,,,,,,,,,,,,,,0,13,13,15,,,,,,,,,,,,,,,,,,,,,,,,,,,108.6597863000352,None,108.6597863000352,None,108.6597863000352,None,108.86245640000561,None,109.26752210000996,None,109.26752210000996,None,109.26752210000996,None,109.67895239999052,None,110.69539160002023,None,p,110.69539160002023,None,110.69539160002023,None,110.69539160002023,None,110.69539160002023,None,110.69539160002023,None,1.0653321000281721,,,,,,,,,,,,,,,,,,,,,,,,,,,,,,,,,,,,,,,,,,,NIKFNS2,001,2021_Sep_24_1533,shapka,2021.1.4,60.05093519959452,
1,6,abs,left,left.png,left.png,sup,Фрукты,Бухты,music3.png,tool2.png,animal3.png,car2.png,-298,-298,298,298,316,-316,316,-316,"[-200, 0]","[200, 0]","[104, 104]","[104, 104]","[104, 104]","[104, 104]",,,,,,,,,,,,,,,,,,,,,,,,,,,,,,,,,,0,14,14,1,,,,,,,,,,,,,,,,,,,,,,,,,,,111.80326060001971,None,111.80326060001971,None,111.80326060001971,None,112.01250549999531,None,112.41720450000139,None,112.41720450000139,None,112.41720450000139,None,112.82905860000756,None,113.84546540002339,None,a,113.84546540002339,None,113.84546540002339,None,113.84546540002339,None,113.84546540002339,None,113.84546540002339,None,2.8030179999768734,,,,,,,,,,,,,,,,,,,,,,,,,,,,,,,,,,,,,,,,,,,NIKFNS2,001,2021_Sep_24_1533,shapka,2021.1.4,60.05093519959452,
1,5,pre,left,left.png,left.png,sup,Посуда,Валюта,tableware4.png,animal1.png,tool2.png,animal2.png,-298,-298,298,298,-316,316,-316,316,"[-200, 0]","[200, 0]","[104, 104]","[104, 104]","[104, 104]","[104, 104]",,,,,,,,,,,,,,,,,,,,,,,,,,,,,,,,,,0,15,15,5,,,,,,,,,,,,,,,,,,,,,,,,,,,116.71026409999467,None,116.71026409999467,None,116.71026409999467,None,116.91266820003511,None,117.31741950003197,None,117.31741950003197,None,117.31741950003197,None,117.72924980003154,None,118.74308799998835,None,None,118.74308799998835,None,118.74308799998835,None,118.74308799998835,None,118.74308799998835,None,118.74308799998835,None,,,,,,,,,,,,,,,,,,,,,,,,,,,,,,,,,,,,,,,,,,,,NIKFNS2,001,2021_Sep_24_1533,shapka,2021.1.4,60.05093519959452,
,,,,,,,,,,,,,,,,,,,,,,,,,,,,,,,,,,,,,,,,,,,,,,,,,,,,,,,,,,,,,,,,,,,,,,,,,,,,,,,,,,,,,,,,,,,,,,,,,,,,,,,,,,,,,,,,,,,,,,,,122.74633789999643,None,space,6.974181599973235,122.74633789999643,None,,,,,,,,,,,,,,,,,,,,,,,,,,,,,,,,,,,,,NIKFNS2,001,2021_Sep_24_1533,shapka,2021.1.4,60.05093519959452,
1,8,abs,left,left.png,left.png,non,Рубашки,Барашки,car10.png,tool6.png,tool4.png,car8.png,-298,-298,298,298,316,-316,316,-316,"[-200, 0]","[200, 0]","[81, 81]","[81, 81]","[81, 81]","[81, 81]",4,car1.png,car2.png,music10.png,animal7.png,None,None,None,None,-298,-298,298,298,-298,-298,298,298,-85,85,-85,85,200,-200,200,-200,"[81, 81]","[81, 81]","[81, 81]","[81, 81]","[81, 81]","[81, 81]","[81, 81]","[81, 81]",,,,,0,0,0,7,,,,,,,,,,,,,,,,,,,,,,,None,None,None,None,None,None,None,None,130.38000619999366,None,130.38000619999366,None,130.38000619999366,None,130.76320029998897,None,,,,,,,,,,,,,,,,,,,,,131.7923046000069,None,None,131.7923046000069,None,131.7923046000069,None,131.7923046000069,None,131.7923046000069,None,131.7923046000069,None,131.7923046000069,None,131.7923046000069,None,131.7923046000069,None,131.7923046000069,None,131.7923046000069,None,131.7923046000069,None,131.7923046000069,None,131.7923046000069,None,,,,,,,,NIKFNS2,001,2021_Sep_24_1533,shapka,2021.1.4,60.05093519959452,
2,5,pre,right,right.png,right.png,bas,Стулья,Брусья,furniture2.png,animal10.png,music1.png,tool4.png,298,298,-298,-298,316,-316,316,-316,"[200, 0]","[-200, 0]","[81, 81]","[81, 81]","[81, 81]","[81, 81]",2,None,None,None,None,None,None,None,None,298,298,-298,-298,298,298,-298,-298,85,-85,85,-85,200,-200,200,-200,"[81, 81]","[81, 81]","[81, 81]","[81, 81]","[81, 81]","[81, 81]","[81, 81]","[81, 81]",,,,,0,1,1,259,,,,,,,,,,,,,,,,,,,,,,,135.78682360000676,None,135.78682360000676,None,135.78682360000676,None,135.96347860002425,None,136.3682364000124,None,136.3682364000124,None,136.3682364000124,None,136.76356650004163,None,,,,,,,,,,,,,,,,,,,,,137.77860520000104,None,a,137.77860520000104,None,137.77860520000104,None,137.77860520000104,None,137.77860520000104,None,137.77860520000104,None,137.77860520000104,None,137.77860520000104,None,137.77860520000104,None,137.77860520000104,None,137.77860520000104,None,137.77860520000104,None,137.77860520000104,None,137.77860520000104,None,-1.921929200005252,,,,,,,NIKFNS2,001,2021_Sep_24_1533,shapka,2021.1.4,60.05093519959452,
2,5,pre,right,right.png,right.png,bas,Чашки,Шашки,tableware1.png,animal2.png,animal1.png,car4.png,298,298,-298,-298,-316,316,-316,316,"[200, 0]","[-200, 0]","[81, 81]","[81, 81]","[81, 81]","[81, 81]",2,None,None,None,None,None,None,None,None,298,298,-298,-298,298,298,-298,-298,-85,85,-85,85,-200,200,-200,200,"[81, 81]","[81, 81]","[81, 81]","[81, 81]","[81, 81]","[81, 81]","[81, 81]","[81, 81]",,,,,0,2,2,285,,,,,,,,,,,,,,,,,,,,,,,137.8208129000268,None,137.8208129000268,None,137.8208129000268,None,138.0303006999893,None,138.43499000003794,None,138.43499000003794,None,138.43499000003794,None,138.84690200001933,None,,,,,,,,,,,,,,,,,,,,,139.860831100028,None,p,139.860831100028,None,139.860831100028,None,139.860831100028,None,139.860831100028,None,139.860831100028,None,139.860831100028,None,139.860831100028,None,139.860831100028,None,139.860831100028,None,139.860831100028,None,139.860831100028,None,139.860831100028,None,139.860831100028,None,1.0357850000145845,,,,,,,NIKFNS2,001,2021_Sep_24_1533,shapka,2021.1.4,60.05093519959452,
1,10,abs,left,left.png,left.png,non,Яблоки,Пряники,car5.png,animal7.png,tool9.png,tool8.png,-298,-298,298,298,-316,316,-316,316,"[-200, 0]","[200, 0]","[81, 81]","[81, 81]","[81, 81]","[81, 81]",6,animal2.png,tool1.png,animal10.png,car6.png,tool3.png,animal1.png,music4.png,car5.png,-298,-298,298,298,-298,-298,298,298,85,-85,85,-85,200,-200,200,-200,"[81, 81]","[81, 81]","[81, 81]","[81, 81]","[81, 81]","[81, 81]","[81, 81]","[81, 81]",,,,,0,3,3,48,,,,,,,,,,,,,,,,,,,,,,,140.9455631999881,None,140.9455631999881,None,140.9455631999881,None,141.14706570003182,None,141.55178750003688,None,141.55178750003688,None,141.55178750003688,None,141.96369800000684,None,,,,,,,,,,,,,,,,,,,,,143.00437179999426,None,a,143.00437179999426,None,143.00437179999426,None,143.00437179999426,None,143.00437179999426,None,143.00437179999426,None,143.00437179999426,None,143.00437179999426,None,143.00437179999426,None,143.00437179999426,None,143.00437179999426,None,143.00437179999426,None,143.00437179999426,None,143.00437179999426,None,2.4042782000033185,,,,,,,NIKFNS2,001,2021_Sep_24_1533,shapka,2021.1.4,60.05093519959452,
1,9,pre,left,left.png,left.png,bas,Рубашки,Барашки,clothes4.png,car8.png,tool10.png,animal1.png,-298,-298,298,298,85,-85,85,-85,"[-200, 0]","[200, 0]","[81, 81]","[81, 81]","[81, 81]","[81, 81]",6,car4.png,car3.png,animal5.png,tool7.png,tool1.png,tool6.png,tool2.png,music9.png,-298,-298,298,298,-298,-298,298,298,316,-316,316,-316,200,-200,200,-200,"[81, 81]","[81, 81]","[81, 81]","[81, 81]","[81, 81]","[81, 81]","[81, 81]","[81, 81]",,,,,0,4,4,126,,,,,,,,,,,,,,,,,,,,,,,145.4550026000361,None,145.4550026000361,None,145.4550026000361,None,145.6639590000268,None,146.0686512000393,None,146.0686512000393,None,146.0686512000393,None,146.48052839998854,None,,,,,,,,,,,,,,,,,,,,,147.5200068000122,None,p,147.5200068000122,None,147.5200068000122,None,147.5200068000122,None,147.5200068000122,None,147.5200068000122,None,147.5200068000122,None,147.5200068000122,None,147.5200068000122,None,147.5200068000122,None,147.5200068000122,None,147.5200068000122,None,147.5200068000122,None,147.5200068000122,None,1.1366917000268586,,,,,,,NIKFNS2,001,2021_Sep_24_1533,shapka,2021.1.4,60.05093519959452,
1,6,abs,left,left.png,left.png,non,Стулья,Брусья,tool1.png,animal2.png,car3.png,music8.png,-298,-298,298,298,-316,316,-316,316,"[-200, 0]","[200, 0]","[81, 81]","[81, 81]","[81, 81]","[81, 81]",2,None,None,None,None,None,None,None,None,-298,-298,298,298,-298,-298,298,298,-85,85,-85,85,-200,200,-200,200,"[81, 81]","[81, 81]","[81, 81]","[81, 81]","[81, 81]","[81, 81]","[81, 81]","[81, 81]",,,,,0,5,5,14,,,,,,,,,,,,,,,,,,,,,,,148.70238070003688,None,148.70238070003688,None,148.70238070003688,None,148.91412790003233,None,149.31885620002868,None,149.31885620002868,None,149.31885620002868,None,149.7306946000317,None,,,,,,,,,,,,,,,,,,,,,150.74970859999303,None,a,150.74970859999303,None,150.74970859999303,None,150.74970859999303,None,150.74970859999303,None,150.74970859999303,None,150.74970859999303,None,150.74970859999303,None,150.74970859999303,None,150.74970859999303,None,150.74970859999303,None,150.74970859999303,None,150.74970859999303,None,150.74970859999303,None,1.1306875000009313,,,,,,,NIKFNS2,001,2021_Sep_24_1533,shapka,2021.1.4,60.05093519959452,
1,8,abs,left,left.png,left.png,non,Чашки,Шашки,car8.png,tool5.png,tool2.png,animal7.png,-298,-298,298,298,-316,316,-316,316,"[-200, 0]","[200, 0]","[81, 81]","[81, 81]","[81, 81]","[81, 81]",4,car3.png,music9.png,car4.png,music6.png,None,None,None,None,-298,-298,298,298,-298,-298,298,298,85,-85,85,-85,200,-200,200,-200,"[81, 81]","[81, 81]","[81, 81]","[81, 81]","[81, 81]","[81, 81]","[81, 81]","[81, 81]",,,,,0,6,6,32,,,,,,,,,,,,,,,,,,,,,,,151.9284896000172,None,151.9284896000172,None,151.9284896000172,None,152.13091790000908,None,152.53563040000154,None,152.53563040000154,None,152.53563040000154,None,152.94752859999426,None,,,,,,,,,,,,,,,,,,,,,153.97631450003246,None,a,153.97631450003246,None,153.97631450003246,None,153.97631450003246,None,153.97631450003246,None,153.97631450003246,None,153.97631450003246,None,153.97631450003246,None,153.97631450003246,None,153.97631450003246,None,153.97631450003246,None,153.97631450003246,None,153.97631450003246,None,153.97631450003246,None,1.2241753000416793,,,,,,,NIKFNS2,001,2021_Sep_24_1533,shapka,2021.1.4,60.05093519959452,
2,5,pre,right,right.png,right.png,bas,Рубашки,Барашки,clothes1.png,tool1.png,tool4.png,tool10.png,298,298,-298,-298,-316,316,-316,316,"[200, 0]","[-200, 0]","[81, 81]","[81, 81]","[81, 81]","[81, 81]",2,None,None,None,None,None,None,None,None,298,298,-298,-298,298,298,-298,-298,-85,85,-85,85,-200,200,-200,200,"[81, 81]","[81, 81]","[81, 81]","[81, 81]","[81, 81]","[81, 81]","[81, 81]","[81, 81]",,,,,0,7,7,231,,,,,,,,,,,,,,,,,,,,,,,155.25386659998912,None,155.25386659998912,None,155.25386659998912,None,155.46440679999068,None,155.86908790003508,None,155.86908790003508,None,155.86908790003508,None,156.2810785000329,None,,,,,,,,,,,,,,,,,,,,,157.29752860002918,None,p,157.29752860002918,None,157.29752860002918,None,157.29752860002918,None,157.29752860002918,None,157.29752860002918,None,157.29752860002918,None,157.29752860002918,None,157.29752860002918,None,157.29752860002918,None,157.29752860002918,None,157.29752860002918,None,157.29752860002918,None,157.29752860002918,None,2.6949554000166245,,,,,,,NIKFNS2,001,2021_Sep_24_1533,shapka,2021.1.4,60.05093519959452,
2,9,pre,right,right.png,right.png,bas,Яблоки,Пряники,fruit4.png,music10.png,animal5.png,tool3.png,298,298,-298,-298,200,-200,200,-200,"[200, 0]","[-200, 0]","[81, 81]","[81, 81]","[81, 81]","[81, 81]",6,animal9.png,music7.png,music1.png,car6.png,animal8.png,tool4.png,music2.png,car1.png,298,298,-298,-298,298,298,-298,-298,85,-85,85,-85,-316,316,-316,316,"[81, 81]","[81, 81]","[81, 81]","[81, 81]","[81, 81]","[81, 81]","[81, 81]","[81, 81]",,,,,0,8,8,339,,,,,,,,,,,,,,,,,,,,,,,160.05506129999412,None,160.05506129999412,None,160.05506129999412,None,160.26441559998784,None,160.67394000000786,None,160.67394000000786,None,160.67394000000786,None,161.08119160000933,None,,,,,,,,,,,,,,,,,,,,,162.12016220000805,None,p,162.12016220000805,None,162.12016220000805,None,162.12016220000805,None,162.12016220000805,None,162.12016220000805,None,162.12016220000805,None,162.12016220000805,None,162.12016220000805,None,162.12016220000805,None,162.12016220000805,None,162.12016220000805,None,162.12016220000805,None,162.12016220000805,None,3.1204445000039414,,,,,,,NIKFNS2,001,2021_Sep_24_1533,shapka,2021.1.4,60.05093519959452,
1,5,pre,left,left.png,left.png,bas,Яблоки,Пряники,fruit3.png,tool6.png,animal7.png,tool9.png,-298,-298,298,298,316,-316,316,-316,"[-200, 0]","[200, 0]","[81, 81]","[81, 81]","[81, 81]","[81, 81]",2,None,None,None,None,None,None,None,None,-298,-298,298,298,-298,-298,298,298,85,-85,85,-85,200,-200,200,-200,"[81, 81]","[81, 81]","[81, 81]","[81, 81]","[81, 81]","[81, 81]","[81, 81]","[81, 81]",,,,,0,9,9,201,,,,,,,,,,,,,,,,,,,,,,,165.28605019999668,None,165.28605019999668,None,165.28605019999668,None,165.49808250000933,None,165.90019280003617,None,165.90019280003617,None,165.90019280003617,None,166.31482850003522,None,,,,,,,,,,,,,,,,,,,,,167.33291060000192,None,p,167.33291060000192,None,167.33291060000192,None,167.33291060000192,None,167.33291060000192,None,167.33291060000192,None,167.33291060000192,None,167.33291060000192,None,167.33291060000192,None,167.33291060000192,None,167.33291060000192,None,167.33291060000192,None,167.33291060000192,None,167.33291060000192,None,1.3474721999955364,,,,,,,NIKFNS2,001,2021_Sep_24_1533,shapka,2021.1.4,60.05093519959452,
2,9,pre,right,right.png,right.png,bas,Чашки,Шашки,tableware4.png,car4.png,animal9.png,tool2.png,298,298,-298,-298,-200,200,-200,200,"[200, 0]","[-200, 0]","[81, 81]","[81, 81]","[81, 81]","[81, 81]",6,tool5.png,car10.png,music7.png,tool3.png,music8.png,music1.png,tool1.png,tool6.png,298,298,-298,-298,298,298,-298,-298,85,-85,85,-85,316,-316,316,-316,"[81, 81]","[81, 81]","[81, 81]","[81, 81]","[81, 81]","[81, 81]","[81, 81]","[81, 81]",,,,,0,10,10,304,,,,,,,,,,,,,,,,,,,,,,,168.73421040002722,None,168.73421040002722,None,168.73421040002722,None,168.94820680003613,None,169.35301080002682,None,169.35301080002682,None,169.35301080002682,None,169.76491800002987,None,,,,,,,,,,,,,,,,,,,,,170.8036288000294,None,a,170.8036288000294,None,170.8036288000294,None,170.8036288000294,None,170.8036288000294,None,170.8036288000294,None,170.8036288000294,None,170.8036288000294,None,170.8036288000294,None,170.8036288000294,None,170.8036288000294,None,170.8036288000294,None,170.8036288000294,None,170.8036288000294,None,2.644732400018256,,,,,,,NIKFNS2,001,2021_Sep_24_1533,shapka,2021.1.4,60.05093519959452,
2,10,abs,right,right.png,right.png,non,Рубашки,Барашки,car1.png,tool8.png,tool9.png,music2.png,298,298,-298,-298,-316,316,-316,316,"[200, 0]","[-200, 0]","[81, 81]","[81, 81]","[81, 81]","[81, 81]",6,animal6.png,tool4.png,animal5.png,tool7.png,car10.png,animal1.png,music1.png,car3.png,298,298,-298,-298,298,298,-298,-298,85,-85,85,-85,-200,200,-200,200,"[81, 81]","[81, 81]","[81, 81]","[81, 81]","[81, 81]","[81, 81]","[81, 81]","[81, 81]",,,,,0,11,11,61,,,,,,,,,,,,,,,,,,,,,,,173.48919590003788,None,173.48919590003788,None,173.48919590003788,None,173.69843849999597,None,174.1045565000386,None,174.1045565000386,None,174.1045565000386,None,174.5151466000243,None,,,,,,,,,,,,,,,,,,,,,175.5538164000027,None,a,175.5538164000027,None,175.5538164000027,None,175.5538164000027,None,175.5538164000027,None,175.5538164000027,None,175.5538164000027,None,175.5538164000027,None,175.5538164000027,None,175.5538164000027,None,175.5538164000027,None,175.5538164000027,None,175.5538164000027,None,175.5538164000027,None,1.0465935000102036,,,,,,,NIKFNS2,001,2021_Sep_24_1533,shapka,2021.1.4,60.05093519959452,
1,7,pre,left,left.png,left.png,bas,Стулья,Брусья,furniture3.png,music8.png,car5.png,tool7.png,-298,-298,298,298,-85,85,-85,85,"[-200, 0]","[200, 0]","[81, 81]","[81, 81]","[81, 81]","[81, 81]",4,animal2.png,animal1.png,car9.png,tool3.png,None,None,None,None,-298,-298,298,298,-298,-298,298,298,316,-316,316,-316,200,-200,200,-200,"[81, 81]","[81, 81]","[81, 81]","[81, 81]","[81, 81]","[81, 81]","[81, 81]","[81, 81]",,,,,0,12,12,150,,,,,,,,,,,,,,,,,,,,,,,176.65315810003085,None,176.65315810003085,None,176.65315810003085,None,176.86514830001397,None,177.2700174000347,None,177.2700174000347,None,177.2700174000347,None,177.68204520002473,None,,,,,,,,,,,,,,,,,,,,,178.70838820002973,None,p,178.70838820002973,None,178.70838820002973,None,178.70838820002973,None,178.70838820002973,None,178.70838820002973,None,178.70838820002973,None,178.70838820002973,None,178.70838820002973,None,178.70838820002973,None,178.70838820002973,None,178.70838820002973,None,178.70838820002973,None,178.70838820002973,None,3.123941800033208,,,,,,,NIKFNS2,001,2021_Sep_24_1533,shapka,2021.1.4,60.05093519959452,
1,5,pre,left,left.png,left.png,bas,Чашки,Шашки,tableware2.png,tool8.png,tool10.png,music5.png,-298,-298,298,298,-316,316,-316,316,"[-200, 0]","[200, 0]","[81, 81]","[81, 81]","[81, 81]","[81, 81]",2,None,None,None,None,None,None,None,None,-298,-298,298,298,-298,-298,298,298,-85,85,-85,85,-200,200,-200,200,"[81, 81]","[81, 81]","[81, 81]","[81, 81]","[81, 81]","[81, 81]","[81, 81]","[81, 81]",,,,,0,13,13,172,,,,,,,,,,,,,,,,,,,,,,,181.89016830001492,None,181.89016830001492,None,181.89016830001492,None,182.09875400003511,None,182.504388500005,None,182.504388500005,None,182.504388500005,None,182.91538630001014,None,,,,,,,,,,,,,,,,,,,,,183.93127729999833,None,p,183.93127729999833,None,183.93127729999833,None,183.93127729999833,None,183.93127729999833,None,183.93127729999833,None,183.93127729999833,None,183.93127729999833,None,183.93127729999833,None,183.93127729999833,None,183.93127729999833,None,183.93127729999833,None,183.93127729999833,None,183.93127729999833,None,0.6610158000257798,,,,,,,NIKFNS2,001,2021_Sep_24_1533,shapka,2021.1.4,60.05093519959452,
2,9,pre,right,right.png,right.png,bas,Рубашки,Барашки,clothes3.png,animal7.png,car9.png,car2.png,298,298,-298,-298,-85,85,-85,85,"[200, 0]","[-200, 0]","[81, 81]","[81, 81]","[81, 81]","[81, 81]",6,tool4.png,music5.png,tool6.png,car1.png,car10.png,animal8.png,tool1.png,car3.png,298,298,-298,-298,298,298,-298,-298,316,-316,316,-316,-200,200,-200,200,"[81, 81]","[81, 81]","[81, 81]","[81, 81]","[81, 81]","[81, 81]","[81, 81]","[81, 81]",,,,,0,14,14,249,,,,,,,,,,,,,,,,,,,,,,,184.6552182000014,None,184.6552182000014,None,184.6552182000014,None,184.86564319999889,None,185.27041070000269,None,185.27041070000269,None,185.27041070000269,None,185.6822930999915,None,,,,,,,,,,,,,,,,,,,,,186.7262311000377,None,p,186.7262311000377,None,186.7262311000377,None,186.7262311000377,None,186.7262311000377,None,186.7262311000377,None,186.7262311000377,None,186.7262311000377,None,186.7262311000377,None,186.7262311000377,None,186.7262311000377,None,186.7262311000377,None,186.7262311000377,None,186.7262311000377,None,0.9864412000169978,,,,,,,NIKFNS2,001,2021_Sep_24_1533,shapka,2021.1.4,60.05093519959452,
2,7,pre,right,right.png,right.png,bas,Яблоки,Пряники,fruit1.png,animal10.png,car4.png,music5.png,298,298,-298,-298,-85,85,-85,85,"[200, 0]","[-200, 0]","[81, 81]","[81, 81]","[81, 81]","[81, 81]",4,animal9.png,tool2.png,tool8.png,music7.png,None,None,None,None,298,298,-298,-298,298,298,-298,-298,-316,316,-316,316,200,-200,200,-200,"[81, 81]","[81, 81]","[81, 81]","[81, 81]","[81, 81]","[81, 81]","[81, 81]","[81, 81]",,,,,0,15,15,331,,,,,,,,,,,,,,,,,,,,,,,187.75604569999268,None,187.75604569999268,None,187.75604569999268,None,187.965915400011,None,188.3705486000399,None,188.3705486000399,None,188.3705486000399,None,188.78248059999896,None,,,,,,,,,,,,,,,,,,,,,189.80931889999192,None,p,189.80931889999192,None,189.80931889999192,None,189.80931889999192,None,189.80931889999192,None,189.80931889999192,None,189.80931889999192,None,189.80931889999192,None,189.80931889999192,None,189.80931889999192,None,189.80931889999192,None,189.80931889999192,None,189.80931889999192,None,189.80931889999192,None,1.3269335000077263,,,,,,,NIKFNS2,001,2021_Sep_24_1533,shapka,2021.1.4,60.05093519959452,
2,7,pre,right,right.png,right.png,bas,Яблоки,Пряники,fruit5.png,animal3.png,music1.png,animal5.png,298,298,-298,-298,85,-85,85,-85,"[200, 0]","[-200, 0]","[81, 81]","[81, 81]","[81, 81]","[81, 81]",4,animal6.png,car1.png,car7.png,tool2.png,None,None,None,None,298,298,-298,-298,298,298,-298,-298,-316,316,-316,316,200,-200,200,-200,"[81, 81]","[81, 81]","[81, 81]","[81, 81]","[81, 81]","[81, 81]","[81, 81]","[81, 81]",,,,,0,16,16,330,,,,,,,,,,,,,,,,,,,,,,,191.19038450001972,None,191.19038450001972,None,191.19038450001972,None,191.39912270003697,None,191.80115290003596,None,191.80115290003596,None,191.80115290003596,None,192.21600890002446,None,,,,,,,,,,,,,,,,,,,,,193.23756540002069,None,p,193.23756540002069,None,193.23756540002069,None,193.23756540002069,None,193.23756540002069,None,193.23756540002069,None,193.23756540002069,None,193.23756540002069,None,193.23756540002069,None,193.23756540002069,None,193.23756540002069,None,193.23756540002069,None,193.23756540002069,None,193.23756540002069,None,0.5146793000167236,,,,,,,NIKFNS2,001,2021_Sep_24_1533,shapka,2021.1.4,60.05093519959452,
1,5,pre,left,left.png,left.png,bas,Чашки,Шашки,tableware5.png,animal5.png,animal10.png,tool1.png,-298,-298,298,298,-316,316,-316,316,"[-200, 0]","[200, 0]","[81, 81]","[81, 81]","[81, 81]","[81, 81]",2,None,None,None,None,None,None,None,None,-298,-298,298,298,-298,-298,298,298,-85,85,-85,85,-200,200,-200,200,"[81, 81]","[81, 81]","[81, 81]","[81, 81]","[81, 81]","[81, 81]","[81, 81]","[81, 81]",,,,,0,17,17,169,,,,,,,,,,,,,,,,,,,,,,,193.80408299999544,None,193.80408299999544,None,193.80408299999544,None,194.0161131999921,None,194.42077550000977,None,194.42077550000977,None,194.42077550000977,None,194.83273970003938,None,,,,,,,,,,,,,,,,,,,,,195.85171740001533,None,p,195.85171740001533,None,195.85171740001533,None,195.85171740001533,None,195.85171740001533,None,195.85171740001533,None,195.85171740001533,None,195.85171740001533,None,195.85171740001533,None,195.85171740001533,None,195.85171740001533,None,195.85171740001533,None,195.85171740001533,None,195.85171740001533,None,0.9407957999501377,,,,,,,NIKFNS2,001,2021_Sep_24_1533,shapka,2021.1.4,60.05093519959452,
1,9,pre,left,left.png,left.png,bas,Рубашки,Барашки,clothes1.png,animal1.png,tool5.png,tool6.png,-298,-298,298,298,-85,85,-85,85,"[-200, 0]","[200, 0]","[81, 81]","[81, 81]","[81, 81]","[81, 81]",6,music8.png,music3.png,car9.png,animal3.png,tool2.png,car10.png,tool4.png,music7.png,-298,-298,298,298,-298,-298,298,298,316,-316,316,-316,200,-200,200,-200,"[81, 81]","[81, 81]","[81, 81]","[81, 81]","[81, 81]","[81, 81]","[81, 81]","[81, 81]",,,,,0,18,18,127,,,,,,,,,,,,,,,,,,,,,,,196.85876540001482,None,196.85876540001482,None,196.85876540001482,None,197.0661496000248,None,197.47232940001413,None,197.47232940001413,None,197.47232940001413,None,197.882808400027,None,,,,,,,,,,,,,,,,,,,,,198.92132449999917,None,p,198.92132449999917,None,198.92132449999917,None,198.92132449999917,None,198.92132449999917,None,198.92132449999917,None,198.92132449999917,None,198.92132449999917,None,198.92132449999917,None,198.92132449999917,None,198.92132449999917,None,198.92132449999917,None,198.92132449999917,None,198.92132449999917,None,3.055228299985174,,,,,,,NIKFNS2,001,2021_Sep_24_1533,shapka,2021.1.4,60.05093519959452,
1,6,abs,left,left.png,left.png,non,Рубашки,Барашки,animal7.png,music4.png,car2.png,car10.png,-298,-298,298,298,-316,316,-316,316,"[-200, 0]","[200, 0]","[81, 81]","[81, 81]","[81, 81]","[81, 81]",2,None,None,None,None,None,None,None,None,-298,-298,298,298,-298,-298,298,298,-85,85,-85,85,-200,200,-200,200,"[81, 81]","[81, 81]","[81, 81]","[81, 81]","[81, 81]","[81, 81]","[81, 81]","[81, 81]",,,,,0,19,19,1,,,,,,,,,,,,,,,,,,,,,,,202.0226471000351,None,202.0226471000351,None,202.0226471000351,None,202.23312570003327,None,202.63480270002037,None,202.63480270002037,None,202.63480270002037,None,203.04975340003148,None,,,,,,,,,,,,,,,,,,,,,204.06454700004542,None,a,204.06454700004542,None,204.06454700004542,None,204.06454700004542,None,204.06454700004542,None,204.06454700004542,None,204.06454700004542,None,204.06454700004542,None,204.06454700004542,None,204.06454700004542,None,204.06454700004542,None,204.06454700004542,None,204.06454700004542,None,204.06454700004542,None,1.8319191000191495,,,,,,,NIKFNS2,001,2021_Sep_24_1533,shapka,2021.1.4,60.05093519959452,
1,7,pre,left,left.png,left.png,bas,Стулья,Брусья,furniture2.png,tool5.png,animal6.png,tool2.png,-298,-298,298,298,85,-85,85,-85,"[-200, 0]","[200, 0]","[81, 81]","[81, 81]","[81, 81]","[81, 81]",4,animal4.png,car9.png,music7.png,tool8.png,None,None,None,None,-298,-298,298,298,-298,-298,298,298,316,-316,316,-316,200,-200,200,-200,"[81, 81]","[81, 81]","[81, 81]","[81, 81]","[81, 81]","[81, 81]","[81, 81]","[81, 81]",,,,,0,20,20,143,,,,,,,,,,,,,,,,,,,,,,,205.95440039999085,None,205.95440039999085,None,205.95440039999085,None,206.1666361000389,None,206.57131630001822,None,206.57131630001822,None,206.57131630001822,None,206.9833230000222,None,,,,,,,,,,,,,,,,,,,,,208.00891790003516,None,p,208.00891790003516,None,208.00891790003516,None,208.00891790003516,None,208.00891790003516,None,208.00891790003516,None,208.00891790003516,None,208.00891790003516,None,208.00891790003516,None,208.00891790003516,None,208.00891790003516,None,208.00891790003516,None,208.00891790003516,None,208.00891790003516,None,1.6556500000297092,,,,,,,NIKFNS2,001,2021_Sep_24_1533,shapka,2021.1.4,60.05093519959452,
1,9,pre,left,left.png,left.png,bas,Стулья,Брусья,furniture1.png,tool2.png,car3.png,music6.png,-298,-298,298,298,85,-85,85,-85,"[-200, 0]","[200, 0]","[81, 81]","[81, 81]","[81, 81]","[81, 81]",6,animal7.png,car9.png,tool1.png,car8.png,music10.png,animal4.png,music1.png,animal5.png,-298,-298,298,298,-298,-298,298,298,-316,316,-316,316,-200,200,-200,200,"[81, 81]","[81, 81]","[81, 81]","[81, 81]","[81, 81]","[81, 81]","[81, 81]","[81, 81]",,,,,0,21,21,160,,,,,,,,,,,,,,,,,,,,,,,209.70458409999264,None,209.70458409999264,None,209.70458409999264,None,209.9168182000285,None,210.31882899999619,None,210.31882899999619,None,210.31882899999619,None,210.73349360004067,None,,,,,,,,,,,,,,,,,,,,,211.77048690000083,None,p,211.77048690000083,None,211.77048690000083,None,211.77048690000083,None,211.77048690000083,None,211.77048690000083,None,211.77048690000083,None,211.77048690000083,None,211.77048690000083,None,211.77048690000083,None,211.77048690000083,None,211.77048690000083,None,211.77048690000083,None,211.77048690000083,None,1.2220287999953143,,,,,,,NIKFNS2,001,2021_Sep_24_1533,shapka,2021.1.4,60.05093519959452,
1,5,pre,left,left.png,left.png,bas,Чашки,Шашки,tableware2.png,animal10.png,car1.png,animal7.png,-298,-298,298,298,-316,316,-316,316,"[-200, 0]","[200, 0]","[81, 81]","[81, 81]","[81, 81]","[81, 81]",2,None,None,None,None,None,None,None,None,-298,-298,298,298,-298,-298,298,298,-85,85,-85,85,-200,200,-200,200,"[81, 81]","[81, 81]","[81, 81]","[81, 81]","[81, 81]","[81, 81]","[81, 81]","[81, 81]",,,,,0,22,22,166,,,,,,,,,,,,,,,,,,,,,,,213.03735160001088,None,213.03735160001088,None,213.03735160001088,None,213.25017090002075,None,213.65612990001682,None,213.65612990001682,None,213.65612990001682,None,214.06698910001433,None,,,,,,,,,,,,,,,,,,,,,215.0859383000061,None,p,215.0859383000061,None,215.0859383000061,None,215.0859383000061,None,215.0859383000061,None,215.0859383000061,None,215.0859383000061,None,215.0859383000061,None,215.0859383000061,None,215.0859383000061,None,215.0859383000061,None,215.0859383000061,None,215.0859383000061,None,215.0859383000061,None,0.9144202999887057,,,,,,,NIKFNS2,001,2021_Sep_24_1533,shapka,2021.1.4,60.05093519959452,
2,5,pre,right,right.png,right.png,bas,Чашки,Шашки,tableware1.png,animal6.png,tool1.png,animal10.png,298,298,-298,-298,-316,316,-316,316,"[200, 0]","[-200, 0]","[81, 81]","[81, 81]","[81, 81]","[81, 81]",2,None,None,None,None,None,None,None,None,298,298,-298,-298,298,298,-298,-298,-85,85,-85,85,-200,200,-200,200,"[81, 81]","[81, 81]","[81, 81]","[81, 81]","[81, 81]","[81, 81]","[81, 81]","[81, 81]",,,,,0,23,23,291,,,,,,,,,,,,,,,,,,,,,,,216.06325529998867,None,216.06325529998867,None,216.06325529998867,None,216.26694510004018,None,216.66970080003375,None,216.66970080003375,None,216.66970080003375,None,217.08384320000187,None,,,,,,,,,,,,,,,,,,,,,218.09730710001895,None,p,218.09730710001895,None,218.09730710001895,None,218.09730710001895,None,218.09730710001895,None,218.09730710001895,None,218.09730710001895,None,218.09730710001895,None,218.09730710001895,None,218.09730710001895,None,218.09730710001895,None,218.09730710001895,None,218.09730710001895,None,218.09730710001895,None,1.4549654999864288,,,,,,,NIKFNS2,001,2021_Sep_24_1533,shapka,2021.1.4,60.05093519959452,
1,5,pre,left,left.png,left.png,bas,Яблоки,Пряники,fruit3.png,animal7.png,car1.png,car2.png,-298,-298,298,298,316,-316,316,-316,"[-200, 0]","[200, 0]","[81, 81]","[81, 81]","[81, 81]","[81, 81]",2,None,None,None,None,None,None,None,None,-298,-298,298,298,-298,-298,298,298,85,-85,85,-85,200,-200,200,-200,"[81, 81]","[81, 81]","[81, 81]","[81, 81]","[81, 81]","[81, 81]","[81, 81]","[81, 81]",,,,,0,24,24,196,,,,,,,,,,,,,,,,,,,,,,,219.6145744000096,None,219.6145744000096,None,219.6145744000096,None,219.8171188000124,None,220.22191850002855,None,220.22191850002855,None,220.22191850002855,None,220.63390499999514,None,,,,,,,,,,,,,,,,,,,,,221.64864379999926,None,p,221.64864379999926,None,221.64864379999926,None,221.64864379999926,None,221.64864379999926,None,221.64864379999926,None,221.64864379999926,None,221.64864379999926,None,221.64864379999926,None,221.64864379999926,None,221.64864379999926,None,221.64864379999926,None,221.64864379999926,None,221.64864379999926,None,0.7196169000235386,,,,,,,NIKFNS2,001,2021_Sep_24_1533,shapka,2021.1.4,60.05093519959452,
1,9,pre,left,left.png,left.png,bas,Стулья,Брусья,furniture2.png,music5.png,car3.png,tool4.png,-298,-298,298,298,85,-85,85,-85,"[-200, 0]","[200, 0]","[81, 81]","[81, 81]","[81, 81]","[81, 81]",6,animal2.png,tool10.png,music8.png,car1.png,animal9.png,music1.png,animal6.png,music7.png,-298,-298,298,298,-298,-298,298,298,-316,316,-316,316,200,-200,200,-200,"[81, 81]","[81, 81]","[81, 81]","[81, 81]","[81, 81]","[81, 81]","[81, 81]","[81, 81]",,,,,0,25,25,156,,,,,,,,,,,,,,,,,,,,,,,222.42240730003687,None,222.42240730003687,None,222.42240730003687,None,222.63406020001275,None,223.0387861999916,None,223.0387861999916,None,223.0387861999916,None,223.45074540004134,None,,,,,,,,,,,,,,,,,,,,,224.4888540999964,None,p,224.4888540999964,None,224.4888540999964,None,224.4888540999964,None,224.4888540999964,None,224.4888540999964,None,224.4888540999964,None,224.4888540999964,None,224.4888540999964,None,224.4888540999964,None,224.4888540999964,None,224.4888540999964,None,224.4888540999964,None,224.4888540999964,None,1.303648000000976,,,,,,,NIKFNS2,001,2021_Sep_24_1533,shapka,2021.1.4,60.05093519959452,
1,10,abs,left,left.png,left.png,non,Чашки,Шашки,music9.png,car1.png,car8.png,car5.png,-298,-298,298,298,316,-316,316,-316,"[-200, 0]","[200, 0]","[81, 81]","[81, 81]","[81, 81]","[81, 81]",6,car6.png,music2.png,music10.png,music4.png,animal1.png,music3.png,car9.png,animal7.png,-298,-298,298,298,-298,-298,298,298,-85,85,-85,85,-200,200,-200,200,"[81, 81]","[81, 81]","[81, 81]","[81, 81]","[81, 81]","[81, 81]","[81, 81]","[81, 81]",,,,,0,26,26,36,,,,,,,,,,,,,,,,,,,,,,,225.83869589999085,None,225.83869589999085,None,225.83869589999085,None,226.05086720001418,None,226.45563760004006,None,226.45563760004006,None,226.45563760004006,None,226.86741350003285,None,,,,,,,,,,,,,,,,,,,,,227.9056899000425,None,p,227.9056899000425,None,227.9056899000425,None,227.9056899000425,None,227.9056899000425,None,227.9056899000425,None,227.9056899000425,None,227.9056899000425,None,227.9056899000425,None,227.9056899000425,None,227.9056899000425,None,227.9056899000425,None,227.9056899000425,None,227.9056899000425,None,3.262623500020709,,,,,,,NIKFNS2,001,2021_Sep_24_1533,shapka,2021.1.4,60.05093519959452,
1,6,abs,left,left.png,left.png,non,Рубашки,Барашки,car8.png,music3.png,music10.png,car5.png,-298,-298,298,298,-316,316,-316,316,"[-200, 0]","[200, 0]","[81, 81]","[81, 81]","[81, 81]","[81, 81]",2,None,None,None,None,None,None,None,None,-298,-298,298,298,-298,-298,298,298,-85,85,-85,85,-200,200,-200,200,"[81, 81]","[81, 81]","[81, 81]","[81, 81]","[81, 81]","[81, 81]","[81, 81]","[81, 81]",,,,,0,27,27,2,,,,,,,,,,,,,,,,,,,,,,,231.20558700000402,None,231.20558700000402,None,231.20558700000402,None,231.4177672000369,None,231.8224448999972,None,231.8224448999972,None,231.8224448999972,None,232.234354300017,None,,,,,,,,,,,,,,,,,,,,,233.25345200003358,None,a,233.25345200003358,None,233.25345200003358,None,233.25345200003358,None,233.25345200003358,None,233.25345200003358,None,233.25345200003358,None,233.25345200003358,None,233.25345200003358,None,233.25345200003358,None,233.25345200003358,None,233.25345200003358,None,233.25345200003358,None,233.25345200003358,None,1.066927699954249,,,,,,,NIKFNS2,001,2021_Sep_24_1533,shapka,2021.1.4,60.05093519959452,
2,10,abs,right,right.png,right.png,non,Чашки,Шашки,animal10.png,tool8.png,tool4.png,music5.png,298,298,-298,-298,-316,316,-316,316,"[200, 0]","[-200, 0]","[81, 81]","[81, 81]","[81, 81]","[81, 81]",6,tool7.png,tool10.png,animal6.png,music2.png,tool9.png,car3.png,car1.png,animal1.png,298,298,-298,-298,298,298,-298,-298,-85,85,-85,85,-200,200,-200,200,"[81, 81]","[81, 81]","[81, 81]","[81, 81]","[81, 81]","[81, 81]","[81, 81]","[81, 81]",,,,,0,28,28,86,,,,,,,,,,,,,,,,,,,,,,,234.39372940000612,None,234.39372940000612,None,234.39372940000612,None,234.60124940000242,None,235.00598940002965,None,235.00598940002965,None,235.00598940002965,None,235.41784860001644,None,,,,,,,,,,,,,,,,,,,,,236.47122080001282,None,a,236.47122080001282,None,236.47122080001282,None,236.47122080001282,None,236.47122080001282,None,236.47122080001282,None,236.47122080001282,None,236.47122080001282,None,236.47122080001282,None,236.47122080001282,None,236.47122080001282,None,236.47122080001282,None,236.47122080001282,None,236.47122080001282,None,2.4970869999960996,,,,,,,NIKFNS2,001,2021_Sep_24_1533,shapka,2021.1.4,60.05093519959452,
2,6,abs,right,right.png,right.png,non,Чашки,Шашки,animal1.png,tool2.png,tool8.png,tool4.png,298,298,-298,-298,316,-316,316,-316,"[200, 0]","[-200, 0]","[81, 81]","[81, 81]","[81, 81]","[81, 81]",2,None,None,None,None,None,None,None,None,298,298,-298,-298,298,298,-298,-298,-85,85,-85,85,-200,200,-200,200,"[81, 81]","[81, 81]","[81, 81]","[81, 81]","[81, 81]","[81, 81]","[81, 81]","[81, 81]",,,,,0,29,29,79,,,,,,,,,,,,,,,,,,,,,,,239.0083794000093,None,239.0083794000093,None,239.0083794000093,None,239.21800480003003,None,239.62122690002434,None,239.62122690002434,None,239.62122690002434,None,240.03457200003322,None,,,,,,,,,,,,,,,,,,,,,241.0476866000099,None,a,241.0476866000099,None,241.0476866000099,None,241.0476866000099,None,241.0476866000099,None,241.0476866000099,None,241.0476866000099,None,241.0476866000099,None,241.0476866000099,None,241.0476866000099,None,241.0476866000099,None,241.0476866000099,None,241.0476866000099,None,241.0476866000099,None,1.1847015999956056,,,,,,,NIKFNS2,001,2021_Sep_24_1533,shapka,2021.1.4,60.05093519959452,
1,9,pre,left,left.png,left.png,bas,Чашки,Шашки,tableware4.png,animal8.png,car1.png,animal7.png,-298,-298,298,298,-200,200,-200,200,"[-200, 0]","[200, 0]","[81, 81]","[81, 81]","[81, 81]","[81, 81]",6,car5.png,animal3.png,animal6.png,car9.png,music10.png,music4.png,music5.png,animal2.png,-298,-298,298,298,-298,-298,298,298,-85,85,-85,85,316,-316,316,-316,"[81, 81]","[81, 81]","[81, 81]","[81, 81]","[81, 81]","[81, 81]","[81, 81]","[81, 81]",,,,,0,30,30,190,,,,,,,,,,,,,,,,,,,,,,,242.28433420002693,None,242.28433420002693,None,242.28433420002693,None,242.48493560001953,None,242.88690240000142,None,242.88690240000142,None,242.88690240000142,None,243.30159710004227,None,,,,,,,,,,,,,,,,,,,,,244.32860090001486,None,p,244.32860090001486,None,244.32860090001486,None,244.32860090001486,None,244.32860090001486,None,244.32860090001486,None,244.32860090001486,None,244.32860090001486,None,244.32860090001486,None,244.32860090001486,None,244.32860090001486,None,244.32860090001486,None,244.32860090001486,None,244.32860090001486,None,0.37580149999121204,,,,,,,NIKFNS2,001,2021_Sep_24_1533,shapka,2021.1.4,60.05093519959452,
2,7,pre,right,right.png,right.png,bas,Яблоки,Пряники,fruit5.png,music1.png,car8.png,tool10.png,298,298,-298,-298,85,-85,85,-85,"[200, 0]","[-200, 0]","[81, 81]","[81, 81]","[81, 81]","[81, 81]",4,tool2.png,animal6.png,car5.png,car4.png,None,None,None,None,298,298,-298,-298,298,298,-298,-298,-316,316,-316,316,200,-200,200,-200,"[81, 81]","[81, 81]","[81, 81]","[81, 81]","[81, 81]","[81, 81]","[81, 81]","[81, 81]",,,,,0,31,31,325,,,,,,,,,,,,,,,,,,,,,,,244.75680590001866,None,244.75680590001866,None,244.75680590001866,None,244.96835530002136,None,245.37377410003683,None,245.37377410003683,None,245.37377410003683,None,245.7849656000035,None,,,,,,,,,,,,,,,,,,,,,246.81154730002163,None,p,246.81154730002163,None,246.81154730002163,None,246.81154730002163,None,246.81154730002163,None,246.81154730002163,None,246.81154730002163,None,246.81154730002163,None,246.81154730002163,None,246.81154730002163,None,246.81154730002163,None,246.81154730002163,None,246.81154730002163,None,246.81154730002163,None,0.3489604000351392,,,,,,,NIKFNS2,001,2021_Sep_24_1533,shapka,2021.1.4,60.05093519959452,
1,7,pre,left,left.png,left.png,bas,Рубашки,Барашки,clothes2.png,tool3.png,car4.png,car1.png,-298,-298,298,298,316,-316,316,-316,"[-200, 0]","[200, 0]","[81, 81]","[81, 81]","[81, 81]","[81, 81]",4,tool2.png,car6.png,animal5.png,car7.png,None,None,None,None,-298,-298,298,298,-298,-298,298,298,85,-85,85,-85,200,-200,200,-200,"[81, 81]","[81, 81]","[81, 81]","[81, 81]","[81, 81]","[81, 81]","[81, 81]","[81, 81]",,,,,0,32,32,120,,,,,,,,,,,,,,,,,,,,,,,247.2067425000132,None,247.2067425000132,None,247.2067425000132,None,247.41848150000442,None,247.82313130004331,None,247.82313130004331,None,247.82313130004331,None,248.23515930003487,None,,,,,,,,,,,,,,,,,,,,,249.26077290001558,None,p,249.26077290001558,None,249.26077290001558,None,249.26077290001558,None,249.26077290001558,None,249.26077290001558,None,249.26077290001558,None,249.26077290001558,None,249.26077290001558,None,249.26077290001558,None,249.26077290001558,None,249.26077290001558,None,249.26077290001558,None,249.26077290001558,None,2.2916666000382975,,,,,,,NIKFNS2,001,2021_Sep_24_1533,shapka,2021.1.4,60.05093519959452,
1,9,pre,left,left.png,left.png,bas,Рубашки,Барашки,clothes4.png,music3.png,car2.png,music4.png,-298,-298,298,298,-85,85,-85,85,"[-200, 0]","[200, 0]","[81, 81]","[81, 81]","[81, 81]","[81, 81]",6,music5.png,car6.png,tool8.png,animal9.png,tool10.png,car7.png,animal1.png,tool1.png,-298,-298,298,298,-298,-298,298,298,316,-316,316,-316,-200,200,-200,200,"[81, 81]","[81, 81]","[81, 81]","[81, 81]","[81, 81]","[81, 81]","[81, 81]","[81, 81]",,,,,0,33,33,130,,,,,,,,,,,,,,,,,,,,,,,251.61478770000394,None,251.61478770000394,None,251.61478770000394,None,251.81868339999346,None,252.22068410000065,None,252.22068410000065,None,252.22068410000065,None,252.6353203000035,None,,,,,,,,,,,,,,,,,,,,,253.69537760003004,None,p,253.69537760003004,None,253.69537760003004,None,253.69537760003004,None,253.69537760003004,None,253.69537760003004,None,253.69537760003004,None,253.69537760003004,None,253.69537760003004,None,253.69537760003004,None,253.69537760003004,None,253.69537760003004,None,253.69537760003004,None,253.69537760003004,None,0.6011256000492722,,,,,,,NIKFNS2,001,2021_Sep_24_1533,shapka,2021.1.4,60.05093519959452,
2,8,abs,right,right.png,right.png,non,Стулья,Брусья,tool2.png,music7.png,car8.png,music4.png,298,298,-298,-298,316,-316,316,-316,"[200, 0]","[-200, 0]","[81, 81]","[81, 81]","[81, 81]","[81, 81]",4,tool5.png,animal3.png,music6.png,car1.png,None,None,None,None,298,298,-298,-298,298,298,-298,-298,-85,85,-85,85,200,-200,200,-200,"[81, 81]","[81, 81]","[81, 81]","[81, 81]","[81, 81]","[81, 81]","[81, 81]","[81, 81]",,,,,0,34,34,70,,,,,,,,,,,,,,,,,,,,,,,254.34297080000397,None,254.34297080000397,None,254.34297080000397,None,254.55210020003142,None,254.9567671000259,None,254.9567671000259,None,254.9567671000259,None,255.36867689999053,None,,,,,,,,,,,,,,,,,,,,,256.40546540002106,None,a,256.40546540002106,None,256.40546540002106,None,256.40546540002106,None,256.40546540002106,None,256.40546540002106,None,256.40546540002106,None,256.40546540002106,None,256.40546540002106,None,256.40546540002106,None,256.40546540002106,None,256.40546540002106,None,256.40546540002106,None,256.40546540002106,None,0.6350546000176109,,,,,,,NIKFNS2,001,2021_Sep_24_1533,shapka,2021.1.4,60.05093519959452,
2,5,pre,right,right.png,right.png,bas,Стулья,Брусья,furniture4.png,tool1.png,car2.png,tool8.png,298,298,-298,-298,316,-316,316,-316,"[200, 0]","[-200, 0]","[81, 81]","[81, 81]","[81, 81]","[81, 81]",2,None,None,None,None,None,None,None,None,298,298,-298,-298,298,298,-298,-298,85,-85,85,-85,200,-200,200,-200,"[81, 81]","[81, 81]","[81, 81]","[81, 81]","[81, 81]","[81, 81]","[81, 81]","[81, 81]",,,,,0,35,35,261,,,,,,,,,,,,,,,,,,,,,,,257.0938102999935,None,257.0938102999935,None,257.0938102999935,None,257.3022716999985,None,257.7044162999955,None,257.7044162999955,None,257.7044162999955,None,258.1189404000179,None,,,,,,,,,,,,,,,,,,,,,259.13350779999746,None,p,259.13350779999746,None,259.13350779999746,None,259.13350779999746,None,259.13350779999746,None,259.13350779999746,None,259.13350779999746,None,259.13350779999746,None,259.13350779999746,None,259.13350779999746,None,259.13350779999746,None,259.13350779999746,None,259.13350779999746,None,259.13350779999746,None,0.7948879000032321,,,,,,,NIKFNS2,001,2021_Sep_24_1533,shapka,2021.1.4,60.05093519959452,
1,7,pre,left,left.png,left.png,bas,Рубашки,Барашки,clothes4.png,car8.png,tool5.png,car3.png,-298,-298,298,298,-316,316,-316,316,"[-200, 0]","[200, 0]","[81, 81]","[81, 81]","[81, 81]","[81, 81]",4,car4.png,tool7.png,animal6.png,music9.png,None,None,None,None,-298,-298,298,298,-298,-298,298,298,-85,85,-85,85,200,-200,200,-200,"[81, 81]","[81, 81]","[81, 81]","[81, 81]","[81, 81]","[81, 81]","[81, 81]","[81, 81]",,,,,0,36,36,116,,,,,,,,,,,,,,,,,,,,,,,259.98802470002556,None,259.98802470002556,None,259.98802470002556,None,260.2023494000314,None,260.60708019998856,None,260.60708019998856,None,260.60708019998856,None,261.0189646999934,None,,,,,,,,,,,,,,,,,,,,,262.0508356000064,None,p,262.0508356000064,None,262.0508356000064,None,262.0508356000064,None,262.0508356000064,None,262.0508356000064,None,262.0508356000064,None,262.0508356000064,None,262.0508356000064,None,262.0508356000064,None,262.0508356000064,None,262.0508356000064,None,262.0508356000064,None,262.0508356000064,None,1.1975731999846175,,,,,,,NIKFNS2,001,2021_Sep_24_1533,shapka,2021.1.4,60.05093519959452,
1,6,abs,left,left.png,left.png,non,Яблоки,Пряники,animal4.png,tool4.png,car7.png,tool3.png,-298,-298,298,298,316,-316,316,-316,"[-200, 0]","[200, 0]","[81, 81]","[81, 81]","[81, 81]","[81, 81]",2,None,None,None,None,None,None,None,None,-298,-298,298,298,-298,-298,298,298,-85,85,-85,85,-200,200,-200,200,"[81, 81]","[81, 81]","[81, 81]","[81, 81]","[81, 81]","[81, 81]","[81, 81]","[81, 81]",,,,,0,37,37,39,,,,,,,,,,,,,,,,,,,,,,,263.2926740000257,None,263.2926740000257,None,263.2926740000257,None,263.50233250000747,None,263.91007929999614,None,263.91007929999614,None,263.91007929999614,None,264.31909350003116,None,,,,,,,,,,,,,,,,,,,,,265.342340000032,None,a,265.342340000032,None,265.342340000032,None,265.342340000032,None,265.342340000032,None,265.342340000032,None,265.342340000032,None,265.342340000032,None,265.342340000032,None,265.342340000032,None,265.342340000032,None,265.342340000032,None,265.342340000032,None,265.342340000032,None,0.6498874999815598,,,,,,,NIKFNS2,001,2021_Sep_24_1533,shapka,2021.1.4,60.05093519959452,
2,5,pre,right,right.png,right.png,bas,Рубашки,Барашки,clothes5.png,tool9.png,tool7.png,music1.png,298,298,-298,-298,-316,316,-316,316,"[200, 0]","[-200, 0]","[81, 81]","[81, 81]","[81, 81]","[81, 81]",2,None,None,None,None,None,None,None,None,298,298,-298,-298,298,298,-298,-298,-85,85,-85,85,-200,200,-200,200,"[81, 81]","[81, 81]","[81, 81]","[81, 81]","[81, 81]","[81, 81]","[81, 81]","[81, 81]",,,,,0,38,38,229,,,,,,,,,,,,,,,,,,,,,,,266.05158940004185,None,266.05158940004185,None,266.05158940004185,None,266.2526297000004,None,266.65735360002145,None,266.65735360002145,None,266.65735360002145,None,267.0693053000141,None,,,,,,,,,,,,,,,,,,,,,268.08305080002174,None,p,268.08305080002174,None,268.08305080002174,None,268.08305080002174,None,268.08305080002174,None,268.08305080002174,None,268.08305080002174,None,268.08305080002174,None,268.08305080002174,None,268.08305080002174,None,268.08305080002174,None,268.08305080002174,None,268.08305080002174,None,268.08305080002174,None,0.7493149999645539,,,,,,,NIKFNS2,001,2021_Sep_24_1533,shapka,2021.1.4,60.05093519959452,
2,5,pre,right,right.png,right.png,bas,Чашки,Шашки,tableware4.png,car7.png,animal9.png,music2.png,298,298,-298,-298,-316,316,-316,316,"[200, 0]","[-200, 0]","[81, 81]","[81, 81]","[81, 81]","[81, 81]",2,None,None,None,None,None,None,None,None,298,298,-298,-298,298,298,-298,-298,-85,85,-85,85,-200,200,-200,200,"[81, 81]","[81, 81]","[81, 81]","[81, 81]","[81, 81]","[81, 81]","[81, 81]","[81, 81]",,,,,0,39,39,288,,,,,,,,,,,,,,,,,,,,,,,268.89553320000414,None,268.89553320000414,None,268.89553320000414,None,269.1027555000037,None,269.5074120000354,None,269.5074120000354,None,269.5074120000354,None,269.9190810000291,None,,,,,,,,,,,,,,,,,,,,,270.9354829000076,None,a,270.9354829000076,None,270.9354829000076,None,270.9354829000076,None,270.9354829000076,None,270.9354829000076,None,270.9354829000076,None,270.9354829000076,None,270.9354829000076,None,270.9354829000076,None,270.9354829000076,None,270.9354829000076,None,270.9354829000076,None,270.9354829000076,None,1.4568145999801345,,,,,,,NIKFNS2,001,2021_Sep_24_1533,shapka,2021.1.4,60.05093519959452,
1,9,pre,left,left.png,left.png,bas,Яблоки,Пряники,fruit3.png,music1.png,tool7.png,animal3.png,-298,-298,298,298,200,-200,200,-200,"[-200, 0]","[200, 0]","[81, 81]","[81, 81]","[81, 81]","[81, 81]",6,animal1.png,car10.png,music4.png,tool9.png,tool6.png,music8.png,car2.png,tool5.png,-298,-298,298,298,-298,-298,298,298,85,-85,85,-85,-316,316,-316,316,"[81, 81]","[81, 81]","[81, 81]","[81, 81]","[81, 81]","[81, 81]","[81, 81]","[81, 81]",,,,,0,40,40,218,,,,,,,,,,,,,,,,,,,,,,,272.45999970001867,None,272.45999970001867,None,272.45999970001867,None,272.6695807999931,None,273.0822312000091,None,273.0822312000091,None,273.0822312000091,None,273.4861755000311,None,,,,,,,,,,,,,,,,,,,,,274.52158699999563,None,p,274.52158699999563,None,274.52158699999563,None,274.52158699999563,None,274.52158699999563,None,274.52158699999563,None,274.52158699999563,None,274.52158699999563,None,274.52158699999563,None,274.52158699999563,None,274.52158699999563,None,274.52158699999563,None,274.52158699999563,None,274.52158699999563,None,0.9185679000220262,,,,,,,NIKFNS2,001,2021_Sep_24_1533,shapka,2021.1.4,60.05093519959452,
2,9,pre,right,right.png,right.png,bas,Яблоки,Пряники,fruit3.png,tool2.png,tool4.png,car10.png,298,298,-298,-298,-200,200,-200,200,"[200, 0]","[-200, 0]","[81, 81]","[81, 81]","[81, 81]","[81, 81]",6,tool9.png,music7.png,car1.png,tool1.png,music6.png,animal3.png,music5.png,car8.png,298,298,-298,-298,298,298,-298,-298,85,-85,85,-85,-316,316,-316,316,"[81, 81]","[81, 81]","[81, 81]","[81, 81]","[81, 81]","[81, 81]","[81, 81]","[81, 81]",,,,,0,41,41,333,,,,,,,,,,,,,,,,,,,,,,,275.49347480002325,None,275.49347480002325,None,275.49347480002325,None,275.70348680001916,None,276.10469220002415,None,276.10469220002415,None,276.10469220002415,None,276.51971530000446,None,,,,,,,,,,,,,,,,,,,,,277.5756849999889,None,p,277.5756849999889,None,277.5756849999889,None,277.5756849999889,None,277.5756849999889,None,277.5756849999889,None,277.5756849999889,None,277.5756849999889,None,277.5756849999889,None,277.5756849999889,None,277.5756849999889,None,277.5756849999889,None,277.5756849999889,None,277.5756849999889,None,0.47284509998280555,,,,,,,NIKFNS2,001,2021_Sep_24_1533,shapka,2021.1.4,60.05093519959452,
1,5,pre,left,left.png,left.png,bas,Чашки,Шашки,tableware5.png,music1.png,music8.png,tool7.png,-298,-298,298,298,316,-316,316,-316,"[-200, 0]","[200, 0]","[81, 81]","[81, 81]","[81, 81]","[81, 81]",2,None,None,None,None,None,None,None,None,-298,-298,298,298,-298,-298,298,298,-85,85,-85,85,-200,200,-200,200,"[81, 81]","[81, 81]","[81, 81]","[81, 81]","[81, 81]","[81, 81]","[81, 81]","[81, 81]",,,,,0,42,42,163,,,,,,,,,,,,,,,,,,,,,,,278.0910243000253,None,278.0910243000253,None,278.0910243000253,None,278.30318809999153,None,278.707988500013,None,278.707988500013,None,278.707988500013,None,279.1197597000282,None,,,,,,,,,,,,,,,,,,,,,280.13910410000244,None,p,280.13910410000244,None,280.13910410000244,None,280.13910410000244,None,280.13910410000244,None,280.13910410000244,None,280.13910410000244,None,280.13910410000244,None,280.13910410000244,None,280.13910410000244,None,280.13910410000244,None,280.13910410000244,None,280.13910410000244,None,280.13910410000244,None,1.525238599977456,,,,,,,NIKFNS2,001,2021_Sep_24_1533,shapka,2021.1.4,60.05093519959452,
2,5,pre,right,right.png,right.png,bas,Рубашки,Барашки,clothes2.png,tool7.png,tool8.png,car10.png,298,298,-298,-298,316,-316,316,-316,"[200, 0]","[-200, 0]","[81, 81]","[81, 81]","[81, 81]","[81, 81]",2,None,None,None,None,None,None,None,None,298,298,-298,-298,298,298,-298,-298,-85,85,-85,85,-200,200,-200,200,"[81, 81]","[81, 81]","[81, 81]","[81, 81]","[81, 81]","[81, 81]","[81, 81]","[81, 81]",,,,,0,43,43,224,,,,,,,,,,,,,,,,,,,,,,,281.73115890001645,None,281.73115890001645,None,281.73115890001645,None,281.93653380003525,None,282.3424553000368,None,282.3424553000368,None,282.3424553000368,None,282.75337180000497,None,,,,,,,,,,,,,,,,,,,,,283.76677960000234,None,a,283.76677960000234,None,283.76677960000234,None,283.76677960000234,None,283.76677960000234,None,283.76677960000234,None,283.76677960000234,None,283.76677960000234,None,283.76677960000234,None,283.76677960000234,None,283.76677960000234,None,283.76677960000234,None,283.76677960000234,None,283.76677960000234,None,1.2017344000050798,,,,,,,NIKFNS2,001,2021_Sep_24_1533,shapka,2021.1.4,60.05093519959452,
2,8,abs,right,right.png,right.png,non,Рубашки,Барашки,tool3.png,car3.png,music4.png,animal2.png,298,298,-298,-298,316,-316,316,-316,"[200, 0]","[-200, 0]","[81, 81]","[81, 81]","[81, 81]","[81, 81]",4,tool6.png,car10.png,tool1.png,tool9.png,None,None,None,None,298,298,-298,-298,298,298,-298,-298,-85,85,-85,85,200,-200,200,-200,"[81, 81]","[81, 81]","[81, 81]","[81, 81]","[81, 81]","[81, 81]","[81, 81]","[81, 81]",,,,,0,44,44,58,,,,,,,,,,,,,,,,,,,,,,,285.0346093000262,None,285.0346093000262,None,285.0346093000262,None,285.236680800037,None,285.6388269000454,None,285.6388269000454,None,285.6388269000454,None,286.05351709999377,None,,,,,,,,,,,,,,,,,,,,,287.0749596999958,None,a,287.0749596999958,None,287.0749596999958,None,287.0749596999958,None,287.0749596999958,None,287.0749596999958,None,287.0749596999958,None,287.0749596999958,None,287.0749596999958,None,287.0749596999958,None,287.0749596999958,None,287.0749596999958,None,287.0749596999958,None,287.0749596999958,None,1.1333207999705337,,,,,,,NIKFNS2,001,2021_Sep_24_1533,shapka,2021.1.4,60.05093519959452,
1,10,abs,left,left.png,left.png,non,Чашки,Шашки,tool4.png,car4.png,tool3.png,music10.png,-298,-298,298,298,-316,316,-316,316,"[-200, 0]","[200, 0]","[81, 81]","[81, 81]","[81, 81]","[81, 81]",6,music5.png,music6.png,tool1.png,car9.png,car8.png,car7.png,tool2.png,car1.png,-298,-298,298,298,-298,-298,298,298,-85,85,-85,85,-200,200,-200,200,"[81, 81]","[81, 81]","[81, 81]","[81, 81]","[81, 81]","[81, 81]","[81, 81]","[81, 81]",,,,,0,45,45,37,,,,,,,,,,,,,,,,,,,,,,,288.2580699000391,None,288.2580699000391,None,288.2580699000391,None,288.4702848000452,None,288.87529659998836,None,288.87529659998836,None,288.87529659998836,None,289.2868119000341,None,,,,,,,,,,,,,,,,,,,,,290.32013440004084,None,a,290.32013440004084,None,290.32013440004084,None,290.32013440004084,None,290.32013440004084,None,290.32013440004084,None,290.32013440004084,None,290.32013440004084,None,290.32013440004084,None,290.32013440004084,None,290.32013440004084,None,290.32013440004084,None,290.32013440004084,None,290.32013440004084,None,2.6719962999923155,,,,,,,NIKFNS2,001,2021_Sep_24_1533,shapka,2021.1.4,60.05093519959452,
2,9,pre,right,right.png,right.png,bas,Яблоки,Пряники,fruit3.png,animal6.png,animal5.png,tool4.png,298,298,-298,-298,200,-200,200,-200,"[200, 0]","[-200, 0]","[81, 81]","[81, 81]","[81, 81]","[81, 81]",6,tool3.png,tool9.png,tool1.png,animal2.png,car8.png,car1.png,tool7.png,tool10.png,298,298,-298,-298,298,298,-298,-298,85,-85,85,-85,316,-316,316,-316,"[81, 81]","[81, 81]","[81, 81]","[81, 81]","[81, 81]","[81, 81]","[81, 81]","[81, 81]",,,,,0,46,46,342,,,,,,,,,,,,,,,,,,,,,,,293.04678979999153,None,293.04678979999153,None,293.04678979999153,None,293.25356020004256,None,293.6679716000217,None,293.6679716000217,None,293.6679716000217,None,294.0703113999916,None,,,,,,,,,,,,,,,,,,,,,295.1262329000165,None,p,295.1262329000165,None,295.1262329000165,None,295.1262329000165,None,295.1262329000165,None,295.1262329000165,None,295.1262329000165,None,295.1262329000165,None,295.1262329000165,None,295.1262329000165,None,295.1262329000165,None,295.1262329000165,None,295.1262329000165,None,295.1262329000165,None,0.45829309994587675,,,,,,,NIKFNS2,001,2021_Sep_24_1533,shapka,2021.1.4,60.05093519959452,
2,7,pre,right,right.png,right.png,bas,Рубашки,Барашки,clothes1.png,music6.png,animal1.png,car4.png,298,298,-298,-298,316,-316,316,-316,"[200, 0]","[-200, 0]","[81, 81]","[81, 81]","[81, 81]","[81, 81]",4,animal7.png,music2.png,tool10.png,car5.png,None,None,None,None,298,298,-298,-298,298,298,-298,-298,85,-85,85,-85,200,-200,200,-200,"[81, 81]","[81, 81]","[81, 81]","[81, 81]","[81, 81]","[81, 81]","[81, 81]","[81, 81]",,,,,0,47,47,239,,,,,,,,,,,,,,,,,,,,,,,295.62844070000574,None,295.62844070000574,None,295.62844070000574,None,295.83723460003966,None,296.24197010003263,None,296.24197010003263,None,296.24197010003263,None,296.6539328999934,None,,,,,,,,,,,,,,,,,,,,,297.6791493000346,None,a,297.6791493000346,None,297.6791493000346,None,297.6791493000346,None,297.6791493000346,None,297.6791493000346,None,297.6791493000346,None,297.6791493000346,None,297.6791493000346,None,297.6791493000346,None,297.6791493000346,None,297.6791493000346,None,297.6791493000346,None,297.6791493000346,None,2.32897229999071,,,,,,,NIKFNS2,001,2021_Sep_24_1533,shapka,2021.1.4,60.05093519959452,
1,9,pre,left,left.png,left.png,bas,Стулья,Брусья,furniture1.png,car7.png,car4.png,animal1.png,-298,-298,298,298,85,-85,85,-85,"[-200, 0]","[200, 0]","[81, 81]","[81, 81]","[81, 81]","[81, 81]",6,music5.png,car9.png,tool6.png,animal10.png,tool8.png,car1.png,music2.png,tool3.png,-298,-298,298,298,-298,-298,298,298,-316,316,-316,316,-200,200,-200,200,"[81, 81]","[81, 81]","[81, 81]","[81, 81]","[81, 81]","[81, 81]","[81, 81]","[81, 81]",,,,,0,48,48,154,,,,,,,,,,,,,,,,,,,,,,,300.0588462000014,None,300.0588462000014,None,300.0588462000014,None,300.27068740001414,None,300.6754775000154,None,300.6754775000154,None,300.6754775000154,None,301.0873896999983,None,,,,,,,,,,,,,,,,,,,,,302.1237126000342,None,p,302.1237126000342,None,302.1237126000342,None,302.1237126000342,None,302.1237126000342,None,302.1237126000342,None,302.1237126000342,None,302.1237126000342,None,302.1237126000342,None,302.1237126000342,None,302.1237126000342,None,302.1237126000342,None,302.1237126000342,None,302.1237126000342,None,1.2447456000372767,,,,,,,NIKFNS2,001,2021_Sep_24_1533,shapka,2021.1.4,60.05093519959452,
2,10,abs,right,right.png,right.png,non,Яблоки,Пряники,car1.png,tool9.png,music7.png,music3.png,298,298,-298,-298,-316,316,-316,316,"[200, 0]","[-200, 0]","[81, 81]","[81, 81]","[81, 81]","[81, 81]",6,tool6.png,animal8.png,animal2.png,car10.png,tool1.png,music4.png,music1.png,car5.png,298,298,-298,-298,298,298,-298,-298,-85,85,-85,85,-200,200,-200,200,"[81, 81]","[81, 81]","[81, 81]","[81, 81]","[81, 81]","[81, 81]","[81, 81]","[81, 81]",,,,,0,49,49,98,,,,,,,,,,,,,,,,,,,,,,,303.4119209999917,None,303.4119209999917,None,303.4119209999917,None,303.62095880002016,None,304.02562590001617,None,304.02562590001617,None,304.02562590001617,None,304.437546000001,None,,,,,,,,,,,,,,,,,,,,,305.4745918000117,None,a,305.4745918000117,None,305.4745918000117,None,305.4745918000117,None,305.4745918000117,None,305.4745918000117,None,305.4745918000117,None,305.4745918000117,None,305.4745918000117,None,305.4745918000117,None,305.4745918000117,None,305.4745918000117,None,305.4745918000117,None,305.4745918000117,None,0.8059370999690145,,,,,,,NIKFNS2,001,2021_Sep_24_1533,shapka,2021.1.4,60.05093519959452,
2,10,abs,right,right.png,right.png,non,Стулья,Брусья,music9.png,music1.png,animal5.png,car4.png,298,298,-298,-298,-316,316,-316,316,"[200, 0]","[-200, 0]","[81, 81]","[81, 81]","[81, 81]","[81, 81]",6,car7.png,music3.png,car10.png,animal9.png,car8.png,tool1.png,music2.png,animal6.png,298,298,-298,-298,298,298,-298,-298,85,-85,85,-85,-200,200,-200,200,"[81, 81]","[81, 81]","[81, 81]","[81, 81]","[81, 81]","[81, 81]","[81, 81]","[81, 81]",,,,,0,50,50,73,,,,,,,,,,,,,,,,,,,,,,,306.3286849000142,None,306.3286849000142,None,306.3286849000142,None,306.5373541000299,None,306.9424331000191,None,306.9424331000191,None,306.9424331000191,None,307.3543589999899,None,,,,,,,,,,,,,,,,,,,,,308.3925026000361,None,a,308.3925026000361,None,308.3925026000361,None,308.3925026000361,None,308.3925026000361,None,308.3925026000361,None,308.3925026000361,None,308.3925026000361,None,308.3925026000361,None,308.3925026000361,None,308.3925026000361,None,308.3925026000361,None,308.3925026000361,None,308.3925026000361,None,1.4478411000454798,,,,,,,NIKFNS2,001,2021_Sep_24_1533,shapka,2021.1.4,60.05093519959452,
2,9,pre,right,right.png,right.png,bas,Стулья,Брусья,furniture2.png,tool3.png,car6.png,animal10.png,298,298,-298,-298,85,-85,85,-85,"[200, 0]","[-200, 0]","[81, 81]","[81, 81]","[81, 81]","[81, 81]",6,car2.png,tool5.png,car4.png,car9.png,car7.png,animal1.png,car1.png,animal8.png,298,298,-298,-298,298,298,-298,-298,-316,316,-316,316,-200,200,-200,200,"[81, 81]","[81, 81]","[81, 81]","[81, 81]","[81, 81]","[81, 81]","[81, 81]","[81, 81]",,,,,0,51,51,280,,,,,,,,,,,,,,,,,,,,,,,309.89426770003047,None,309.89426770003047,None,309.89426770003047,None,310.1044525000034,None,310.5065690000192,None,310.5065690000192,None,310.5065690000192,None,310.92080190003617,None,,,,,,,,,,,,,,,,,,,,,311.95005899999524,None,p,311.95005899999524,None,311.95005899999524,None,311.95005899999524,None,311.95005899999524,None,311.95005899999524,None,311.95005899999524,None,311.95005899999524,None,311.95005899999524,None,311.95005899999524,None,311.95005899999524,None,311.95005899999524,None,311.95005899999524,None,311.95005899999524,None,0.42613219999475405,,,,,,,NIKFNS2,001,2021_Sep_24_1533,shapka,2021.1.4,60.05093519959452,
2,8,abs,right,right.png,right.png,non,Рубашки,Барашки,tool10.png,car2.png,animal8.png,animal5.png,298,298,-298,-298,316,-316,316,-316,"[200, 0]","[-200, 0]","[81, 81]","[81, 81]","[81, 81]","[81, 81]",4,tool1.png,animal7.png,music3.png,animal4.png,None,None,None,None,298,298,-298,-298,298,298,-298,-298,-85,85,-85,85,200,-200,200,-200,"[81, 81]","[81, 81]","[81, 81]","[81, 81]","[81, 81]","[81, 81]","[81, 81]","[81, 81]",,,,,0,52,52,56,,,,,,,,,,,,,,,,,,,,,,,312.4289204000379,None,312.4289204000379,None,312.4289204000379,None,312.6380085000419,None,313.04272030002903,None,313.04272030002903,None,313.04272030002903,None,313.454507699993,None,,,,,,,,,,,,,,,,,,,,,314.4910209000227,None,None,314.4910209000227,None,314.4910209000227,None,314.4910209000227,None,314.4910209000227,None,314.4910209000227,None,314.4910209000227,None,314.4910209000227,None,314.4910209000227,None,314.4910209000227,None,314.4910209000227,None,314.4910209000227,None,314.4910209000227,None,314.4910209000227,None,,,,,,,,NIKFNS2,001,2021_Sep_24_1533,shapka,2021.1.4,60.05093519959452,
2,6,abs,right,right.png,right.png,non,Яблоки,Пряники,car3.png,animal7.png,tool1.png,animal9.png,298,298,-298,-298,316,-316,316,-316,"[200, 0]","[-200, 0]","[81, 81]","[81, 81]","[81, 81]","[81, 81]",2,None,None,None,None,None,None,None,None,298,298,-298,-298,298,298,-298,-298,-85,85,-85,85,-200,200,-200,200,"[81, 81]","[81, 81]","[81, 81]","[81, 81]","[81, 81]","[81, 81]","[81, 81]","[81, 81]",,,,,0,53,53,88,,,,,,,,,,,,,,,,,,,,,,,318.52781480003614,None,318.52781480003614,None,318.52781480003614,None,318.7383201000048,None,319.1441414000001,None,319.1441414000001,None,319.1441414000001,None,319.55486510001356,None,,,,,,,,,,,,,,,,,,,,,320.568896300043,None,a,320.568896300043,None,320.568896300043,None,320.568896300043,None,320.568896300043,None,320.568896300043,None,320.568896300043,None,320.568896300043,None,320.568896300043,None,320.568896300043,None,320.568896300043,None,320.568896300043,None,320.568896300043,None,320.568896300043,None,-1.8165227000135928,,,,,,,NIKFNS2,001,2021_Sep_24_1533,shapka,2021.1.4,60.05093519959452,
2,5,pre,right,right.png,right.png,bas,Яблоки,Пряники,fruit2.png,car3.png,tool8.png,animal9.png,298,298,-298,-298,316,-316,316,-316,"[200, 0]","[-200, 0]","[81, 81]","[81, 81]","[81, 81]","[81, 81]",2,None,None,None,None,None,None,None,None,298,298,-298,-298,298,298,-298,-298,85,-85,85,-85,200,-200,200,-200,"[81, 81]","[81, 81]","[81, 81]","[81, 81]","[81, 81]","[81, 81]","[81, 81]","[81, 81]",,,,,0,54,54,317,,,,,,,,,,,,,,,,,,,,,,,320.61248350003734,None,320.61248350003734,None,320.61248350003734,None,320.82147150003584,None,321.2237344000023,None,321.2237344000023,None,321.2237344000023,None,321.63838850002503,None,,,,,,,,,,,,,,,,,,,,,322.6542105000117,None,p,322.6542105000117,None,322.6542105000117,None,322.6542105000117,None,322.6542105000117,None,322.6542105000117,None,322.6542105000117,None,322.6542105000117,None,322.6542105000117,None,322.6542105000117,None,322.6542105000117,None,322.6542105000117,None,322.6542105000117,None,322.6542105000117,None,0.7941484999610111,,,,,,,NIKFNS2,001,2021_Sep_24_1533,shapka,2021.1.4,60.05093519959452,
1,10,abs,left,left.png,left.png,non,Чашки,Шашки,music10.png,animal7.png,tool1.png,tool3.png,-298,-298,298,298,316,-316,316,-316,"[-200, 0]","[200, 0]","[81, 81]","[81, 81]","[81, 81]","[81, 81]",6,tool5.png,music6.png,car8.png,animal9.png,animal4.png,tool2.png,tool10.png,animal2.png,-298,-298,298,298,-298,-298,298,298,85,-85,85,-85,-200,200,-200,200,"[81, 81]","[81, 81]","[81, 81]","[81, 81]","[81, 81]","[81, 81]","[81, 81]","[81, 81]",,,,,0,55,55,35,,,,,,,,,,,,,,,,,,,,,,,323.4945833000238,None,323.4945833000238,None,323.4945833000238,None,323.70520220004255,None,324.11120670003584,None,324.11120670003584,None,324.11120670003584,None,324.5217767000431,None,,,,,,,,,,,,,,,,,,,,,325.56375010003103,None,a,325.56375010003103,None,325.56375010003103,None,325.56375010003103,None,325.56375010003103,None,325.56375010003103,None,325.56375010003103,None,325.56375010003103,None,325.56375010003103,None,325.56375010003103,None,325.56375010003103,None,325.56375010003103,None,325.56375010003103,None,325.56375010003103,None,0.7084910999983549,,,,,,,NIKFNS2,001,2021_Sep_24_1533,shapka,2021.1.4,60.05093519959452,
2,5,pre,right,right.png,right.png,bas,Чашки,Шашки,tableware2.png,tool2.png,music7.png,tool1.png,298,298,-298,-298,-316,316,-316,316,"[200, 0]","[-200, 0]","[81, 81]","[81, 81]","[81, 81]","[81, 81]",2,None,None,None,None,None,None,None,None,298,298,-298,-298,298,298,-298,-298,-85,85,-85,85,-200,200,-200,200,"[81, 81]","[81, 81]","[81, 81]","[81, 81]","[81, 81]","[81, 81]","[81, 81]","[81, 81]",,,,,0,56,56,286,,,,,,,,,,,,,,,,,,,,,,,326.31498030002695,None,326.31498030002695,None,326.31498030002695,None,326.5219861000078,None,326.9244027000386,None,326.9244027000386,None,326.9244027000386,None,327.33868119999534,None,,,,,,,,,,,,,,,,,,,,,328.35071580001386,None,p,328.35071580001386,None,328.35071580001386,None,328.35071580001386,None,328.35071580001386,None,328.35071580001386,None,328.35071580001386,None,328.35071580001386,None,328.35071580001386,None,328.35071580001386,None,328.35071580001386,None,328.35071580001386,None,328.35071580001386,None,328.35071580001386,None,0.7375969000277109,,,,,,,NIKFNS2,001,2021_Sep_24_1533,shapka,2021.1.4,60.05093519959452,
2,7,pre,right,right.png,right.png,bas,Яблоки,Пряники,fruit4.png,animal3.png,car1.png,animal2.png,298,298,-298,-298,85,-85,85,-85,"[200, 0]","[-200, 0]","[81, 81]","[81, 81]","[81, 81]","[81, 81]",4,tool4.png,music8.png,tool5.png,tool9.png,None,None,None,None,298,298,-298,-298,298,298,-298,-298,-316,316,-316,316,200,-200,200,-200,"[81, 81]","[81, 81]","[81, 81]","[81, 81]","[81, 81]","[81, 81]","[81, 81]","[81, 81]",,,,,0,57,57,329,,,,,,,,,,,,,,,,,,,,,,,329.1420038000215,None,329.1420038000215,None,329.1420038000215,None,329.35530640004436,None,329.7623547000112,None,329.7623547000112,None,329.7623547000112,None,330.1720463000238,None,,,,,,,,,,,,,,,,,,,,,331.2017995000351,None,p,331.2017995000351,None,331.2017995000351,None,331.2017995000351,None,331.2017995000351,None,331.2017995000351,None,331.2017995000351,None,331.2017995000351,None,331.2017995000351,None,331.2017995000351,None,331.2017995000351,None,331.2017995000351,None,331.2017995000351,None,331.2017995000351,None,1.6785389999859035,,,,,,,NIKFNS2,001,2021_Sep_24_1533,shapka,2021.1.4,60.05093519959452,
2,9,pre,right,right.png,right.png,bas,Яблоки,Пряники,fruit2.png,tool5.png,music1.png,tool8.png,298,298,-298,-298,200,-200,200,-200,"[200, 0]","[-200, 0]","[81, 81]","[81, 81]","[81, 81]","[81, 81]",6,music3.png,tool10.png,tool2.png,car1.png,animal9.png,tool7.png,animal4.png,tool6.png,298,298,-298,-298,298,298,-298,-298,85,-85,85,-85,316,-316,316,-316,"[81, 81]","[81, 81]","[81, 81]","[81, 81]","[81, 81]","[81, 81]","[81, 81]","[81, 81]",,,,,0,58,58,341,,,,,,,,,,,,,,,,,,,,,,,332.929810600006,None,332.929810600006,None,332.929810600006,None,333.1389335000422,None,333.5409195999964,None,333.5409195999964,None,333.5409195999964,None,333.9556234999909,None,,,,,,,,,,,,,,,,,,,,,334.9830820999923,None,p,334.9830820999923,None,334.9830820999923,None,334.9830820999923,None,334.9830820999923,None,334.9830820999923,None,334.9830820999923,None,334.9830820999923,None,334.9830820999923,None,334.9830820999923,None,334.9830820999923,None,334.9830820999923,None,334.9830820999923,None,334.9830820999923,None,0.6813190000248142,,,,,,,NIKFNS2,001,2021_Sep_24_1533,shapka,2021.1.4,60.05093519959452,
1,7,pre,left,left.png,left.png,bas,Яблоки,Пряники,fruit4.png,animal2.png,car5.png,car8.png,-298,-298,298,298,85,-85,85,-85,"[-200, 0]","[200, 0]","[81, 81]","[81, 81]","[81, 81]","[81, 81]",4,tool6.png,animal1.png,car3.png,music7.png,None,None,None,None,-298,-298,298,298,-298,-298,298,298,316,-316,316,-316,200,-200,200,-200,"[81, 81]","[81, 81]","[81, 81]","[81, 81]","[81, 81]","[81, 81]","[81, 81]","[81, 81]",,,,,0,59,59,208,,,,,,,,,,,,,,,,,,,,,,,335.71207290003076,None,335.71207290003076,None,335.71207290003076,None,335.9223567000008,None,336.3247510000365,None,336.3247510000365,None,336.3247510000365,None,336.7389809000306,None,,,,,,,,,,,,,,,,,,,,,337.7717824000283,None,p,337.7717824000283,None,337.7717824000283,None,337.7717824000283,None,337.7717824000283,None,337.7717824000283,None,337.7717824000283,None,337.7717824000283,None,337.7717824000283,None,337.7717824000283,None,337.7717824000283,None,337.7717824000283,None,337.7717824000283,None,337.7717824000283,None,0.3806759000290185,,,,,,,NIKFNS2,001,2021_Sep_24_1533,shapka,2021.1.4,60.05093519959452,
2,8,abs,right,right.png,right.png,non,Яблоки,Пряники,music5.png,music1.png,music7.png,music3.png,298,298,-298,-298,-316,316,-316,316,"[200, 0]","[-200, 0]","[81, 81]","[81, 81]","[81, 81]","[81, 81]",4,music5.png,tool9.png,tool1.png,car10.png,None,None,None,None,298,298,-298,-298,298,298,-298,-298,85,-85,85,-85,200,-200,200,-200,"[81, 81]","[81, 81]","[81, 81]","[81, 81]","[81, 81]","[81, 81]","[81, 81]","[81, 81]",,,,,0,60,60,94,,,,,,,,,,,,,,,,,,,,,,,338.1962377000018,None,338.1962377000018,None,338.1962377000018,None,338.40583150001476,None,338.808005400002,None,338.808005400002,None,338.808005400002,None,339.2224247000413,None,,,,,,,,,,,,,,,,,,,,,340.2494906000211,None,a,340.2494906000211,None,340.2494906000211,None,340.2494906000211,None,340.2494906000211,None,340.2494906000211,None,340.2494906000211,None,340.2494906000211,None,340.2494906000211,None,340.2494906000211,None,340.2494906000211,None,340.2494906000211,None,340.2494906000211,None,340.2494906000211,None,0.4710056000039913,,,,,,,NIKFNS2,001,2021_Sep_24_1533,shapka,2021.1.4,60.05093519959452,
2,7,pre,right,right.png,right.png,bas,Яблоки,Пряники,fruit3.png,music10.png,music1.png,music8.png,298,298,-298,-298,-85,85,-85,85,"[200, 0]","[-200, 0]","[81, 81]","[81, 81]","[81, 81]","[81, 81]",4,car5.png,music4.png,tool9.png,tool1.png,None,None,None,None,298,298,-298,-298,298,298,-298,-298,-316,316,-316,316,200,-200,200,-200,"[81, 81]","[81, 81]","[81, 81]","[81, 81]","[81, 81]","[81, 81]","[81, 81]","[81, 81]",,,,,0,61,61,323,,,,,,,,,,,,,,,,,,,,,,,340.76374240004225,None,340.76374240004225,None,340.76374240004225,None,340.9725963000092,None,341.37464699998964,None,341.37464699998964,None,341.37464699998964,None,341.7892806000309,None,,,,,,,,,,,,,,,,,,,,,342.81095170002664,None,a,342.81095170002664,None,342.81095170002664,None,342.81095170002664,None,342.81095170002664,None,342.81095170002664,None,342.81095170002664,None,342.81095170002664,None,342.81095170002664,None,342.81095170002664,None,342.81095170002664,None,342.81095170002664,None,342.81095170002664,None,342.81095170002664,None,0.3893656000145711,,,,,,,NIKFNS2,001,2021_Sep_24_1533,shapka,2021.1.4,60.05093519959452,
1,7,pre,left,left.png,left.png,bas,Яблоки,Пряники,fruit1.png,tool3.png,music2.png,tool7.png,-298,-298,298,298,85,-85,85,-85,"[-200, 0]","[200, 0]","[81, 81]","[81, 81]","[81, 81]","[81, 81]",4,animal8.png,tool1.png,tool10.png,tool8.png,None,None,None,None,-298,-298,298,298,-298,-298,298,298,-316,316,-316,316,200,-200,200,-200,"[81, 81]","[81, 81]","[81, 81]","[81, 81]","[81, 81]","[81, 81]","[81, 81]","[81, 81]",,,,,0,62,62,205,,,,,,,,,,,,,,,,,,,,,,,343.24649910000153,None,343.24649910000153,None,343.24649910000153,None,343.45599180000136,None,343.8582219000091,None,343.8582219000091,None,343.8582219000091,None,344.2727004000335,None,,,,,,,,,,,,,,,,,,,,,345.29678770003375,None,None,345.29678770003375,None,345.29678770003375,None,345.29678770003375,None,345.29678770003375,None,345.29678770003375,None,345.29678770003375,None,345.29678770003375,None,345.29678770003375,None,345.29678770003375,None,345.29678770003375,None,345.29678770003375,None,345.29678770003375,None,345.29678770003375,None,,,,,,,,NIKFNS2,001,2021_Sep_24_1533,shapka,2021.1.4,60.05093519959452,
2,8,abs,right,right.png,right.png,non,Рубашки,Барашки,car7.png,car7.png,animal6.png,tool8.png,298,298,-298,-298,316,-316,316,-316,"[200, 0]","[-200, 0]","[81, 81]","[81, 81]","[81, 81]","[81, 81]",4,animal5.png,animal10.png,tool9.png,tool1.png,None,None,None,None,298,298,-298,-298,298,298,-298,-298,85,-85,85,-85,200,-200,200,-200,"[81, 81]","[81, 81]","[81, 81]","[81, 81]","[81, 81]","[81, 81]","[81, 81]","[81, 81]",,,,,0,63,63,55,,,,,,,,,,,,,,,,,,,,,,,349.3316532000317,None,349.3316532000317,None,349.3316532000317,None,349.53967530000955,None,349.94446920003975,None,349.94446920003975,None,349.94446920003975,None,350.3562299000332,None,,,,,,,,,,,,,,,,,,,,,351.3915856000385,None,a,351.3915856000385,None,351.3915856000385,None,351.3915856000385,None,351.3915856000385,None,351.3915856000385,None,351.3915856000385,None,351.3915856000385,None,351.3915856000385,None,351.3915856000385,None,351.3915856000385,None,351.3915856000385,None,351.3915856000385,None,351.3915856000385,None,1.3684982000268064,,,,,,,NIKFNS2,001,2021_Sep_24_1533,shapka,2021.1.4,60.05093519959452,
1,5,pre,left,left.png,left.png,bas,Рубашки,Барашки,clothes5.png,music2.png,car1.png,animal6.png,-298,-298,298,298,-316,316,-316,316,"[-200, 0]","[200, 0]","[81, 81]","[81, 81]","[81, 81]","[81, 81]",2,None,None,None,None,None,None,None,None,-298,-298,298,298,-298,-298,298,298,-85,85,-85,85,-200,200,-200,200,"[81, 81]","[81, 81]","[81, 81]","[81, 81]","[81, 81]","[81, 81]","[81, 81]","[81, 81]",,,,,0,64,64,109,,,,,,,,,,,,,,,,,,,,,,,352.81136250001146,None,352.81136250001146,None,352.81136250001146,None,353.0231143000419,None,353.42540210002335,None,353.42540210002335,None,353.42540210002335,None,353.8398106000386,None,,,,,,,,,,,,,,,,,,,,,354.85567560000345,None,p,354.85567560000345,None,354.85567560000345,None,354.85567560000345,None,354.85567560000345,None,354.85567560000345,None,354.85567560000345,None,354.85567560000345,None,354.85567560000345,None,354.85567560000345,None,354.85567560000345,None,354.85567560000345,None,354.85567560000345,None,354.85567560000345,None,0.4326617000042461,,,,,,,NIKFNS2,001,2021_Sep_24_1533,shapka,2021.1.4,60.05093519959452,
1,5,pre,left,left.png,left.png,bas,Рубашки,Барашки,clothes1.png,car3.png,music4.png,music1.png,-298,-298,298,298,-316,316,-316,316,"[-200, 0]","[200, 0]","[81, 81]","[81, 81]","[81, 81]","[81, 81]",2,None,None,None,None,None,None,None,None,-298,-298,298,298,-298,-298,298,298,-85,85,-85,85,-200,200,-200,200,"[81, 81]","[81, 81]","[81, 81]","[81, 81]","[81, 81]","[81, 81]","[81, 81]","[81, 81]",,,,,0,65,65,110,,,,,,,,,,,,,,,,,,,,,,,355.3447101000347,None,355.3447101000347,None,355.3447101000347,None,355.55661999998847,None,355.95899740001187,None,355.95899740001187,None,355.95899740001187,None,356.3732673000195,None,,,,,,,,,,,,,,,,,,,,,357.39719879999757,None,p,357.39719879999757,None,357.39719879999757,None,357.39719879999757,None,357.39719879999757,None,357.39719879999757,None,357.39719879999757,None,357.39719879999757,None,357.39719879999757,None,357.39719879999757,None,357.39719879999757,None,357.39719879999757,None,357.39719879999757,None,357.39719879999757,None,1.9710588000016287,,,,,,,NIKFNS2,001,2021_Sep_24_1533,shapka,2021.1.4,60.05093519959452,
2,7,pre,right,right.png,right.png,bas,Стулья,Брусья,furniture1.png,car8.png,animal10.png,music7.png,298,298,-298,-298,85,-85,85,-85,"[200, 0]","[-200, 0]","[81, 81]","[81, 81]","[81, 81]","[81, 81]",4,animal9.png,animal6.png,car3.png,music2.png,None,None,None,None,298,298,-298,-298,298,298,-298,-298,-316,316,-316,316,200,-200,200,-200,"[81, 81]","[81, 81]","[81, 81]","[81, 81]","[81, 81]","[81, 81]","[81, 81]","[81, 81]",,,,,0,66,66,271,,,,,,,,,,,,,,,,,,,,,,,359.4216437000432,None,359.4216437000432,None,359.4216437000432,None,359.6232960000052,None,360.0293474000064,None,360.0293474000064,None,360.0293474000064,None,360.44002430001274,None,,,,,,,,,,,,,,,,,,,,,361.47161240002606,None,p,361.47161240002606,None,361.47161240002606,None,361.47161240002606,None,361.47161240002606,None,361.47161240002606,None,361.47161240002606,None,361.47161240002606,None,361.47161240002606,None,361.47161240002606,None,361.47161240002606,None,361.47161240002606,None,361.47161240002606,None,361.47161240002606,None,0.7046656000311486,,,,,,,NIKFNS2,001,2021_Sep_24_1533,shapka,2021.1.4,60.05093519959452,
1,6,abs,left,left.png,left.png,non,Стулья,Брусья,tool1.png,music10.png,car8.png,animal7.png,-298,-298,298,298,-316,316,-316,316,"[-200, 0]","[200, 0]","[81, 81]","[81, 81]","[81, 81]","[81, 81]",2,None,None,None,None,None,None,None,None,-298,-298,298,298,-298,-298,298,298,-85,85,-85,85,-200,200,-200,200,"[81, 81]","[81, 81]","[81, 81]","[81, 81]","[81, 81]","[81, 81]","[81, 81]","[81, 81]",,,,,0,67,67,12,,,,,,,,,,,,,,,,,,,,,,,362.22830360004446,None,362.22830360004446,None,362.22830360004446,None,362.4402370000025,None,362.8423593000043,None,362.8423593000043,None,362.8423593000043,None,363.2569014999899,None,,,,,,,,,,,,,,,,,,,,,364.271777499991,None,a,364.271777499991,None,364.271777499991,None,364.271777499991,None,364.271777499991,None,364.271777499991,None,364.271777499991,None,364.271777499991,None,364.271777499991,None,364.271777499991,None,364.271777499991,None,364.271777499991,None,364.271777499991,None,364.271777499991,None,1.0883565000258386,,,,,,,NIKFNS2,001,2021_Sep_24_1533,shapka,2021.1.4,60.05093519959452,
2,7,pre,right,right.png,right.png,bas,Стулья,Брусья,furniture3.png,tool8.png,car3.png,animal5.png,298,298,-298,-298,-85,85,-85,85,"[200, 0]","[-200, 0]","[81, 81]","[81, 81]","[81, 81]","[81, 81]",4,tool4.png,music6.png,tool1.png,animal2.png,None,None,None,None,298,298,-298,-298,298,298,-298,-298,316,-316,316,-316,200,-200,200,-200,"[81, 81]","[81, 81]","[81, 81]","[81, 81]","[81, 81]","[81, 81]","[81, 81]","[81, 81]",,,,,0,68,68,268,,,,,,,,,,,,,,,,,,,,,,,365.4326442000456,None,365.4326442000456,None,365.4326442000456,None,365.6403600000194,None,366.04112110001734,None,366.04112110001734,None,366.04112110001734,None,366.44036400003824,None,,,,,,,,,,,,,,,,,,,,,367.4637934000348,None,p,367.4637934000348,None,367.4637934000348,None,367.4637934000348,None,367.4637934000348,None,367.4637934000348,None,367.4637934000348,None,367.4637934000348,None,367.4637934000348,None,367.4637934000348,None,367.4637934000348,None,367.4637934000348,None,367.4637934000348,None,367.4637934000348,None,0.6725941000040621,,,,,,,NIKFNS2,001,2021_Sep_24_1533,shapka,2021.1.4,60.05093519959452,
2,5,pre,right,right.png,right.png,bas,Яблоки,Пряники,fruit2.png,animal1.png,music5.png,car4.png,298,298,-298,-298,316,-316,316,-316,"[200, 0]","[-200, 0]","[81, 81]","[81, 81]","[81, 81]","[81, 81]",2,None,None,None,None,None,None,None,None,298,298,-298,-298,298,298,-298,-298,85,-85,85,-85,200,-200,200,-200,"[81, 81]","[81, 81]","[81, 81]","[81, 81]","[81, 81]","[81, 81]","[81, 81]","[81, 81]",,,,,0,69,69,322,,,,,,,,,,,,,,,,,,,,,,,368.1824052000302,None,368.1824052000302,None,368.1824052000302,None,368.39045130001614,None,368.7953335000202,None,368.7953335000202,None,368.7953335000202,None,369.2070850000018,None,,,,,,,,,,,,,,,,,,,,,370.23230170004535,None,a,370.23230170004535,None,370.23230170004535,None,370.23230170004535,None,370.23230170004535,None,370.23230170004535,None,370.23230170004535,None,370.23230170004535,None,370.23230170004535,None,370.23230170004535,None,370.23230170004535,None,370.23230170004535,None,370.23230170004535,None,370.23230170004535,None,1.8801739000482485,,,,,,,NIKFNS2,001,2021_Sep_24_1533,shapka,2021.1.4,60.05093519959452,
1,8,abs,left,left.png,left.png,non,Рубашки,Барашки,music7.png,animal1.png,animal7.png,animal6.png,-298,-298,298,298,316,-316,316,-316,"[-200, 0]","[200, 0]","[81, 81]","[81, 81]","[81, 81]","[81, 81]",4,music1.png,music5.png,tool2.png,car9.png,None,None,None,None,-298,-298,298,298,-298,-298,298,298,-85,85,-85,85,200,-200,200,-200,"[81, 81]","[81, 81]","[81, 81]","[81, 81]","[81, 81]","[81, 81]","[81, 81]","[81, 81]",,,,,0,70,70,6,,,,,,,,,,,,,,,,,,,,,,,372.18059080000967,None,372.18059080000967,None,372.18059080000967,None,372.39053120004246,None,372.7955009000143,None,372.7955009000143,None,372.7955009000143,None,373.2072276000399,None,,,,,,,,,,,,,,,,,,,,,374.23564010002883,None,a,374.23564010002883,None,374.23564010002883,None,374.23564010002883,None,374.23564010002883,None,374.23564010002883,None,374.23564010002883,None,374.23564010002883,None,374.23564010002883,None,374.23564010002883,None,374.23564010002883,None,374.23564010002883,None,374.23564010002883,None,374.23564010002883,None,2.732689600030426,,,,,,,NIKFNS2,001,2021_Sep_24_1533,shapka,2021.1.4,60.05093519959452,
2,7,pre,right,right.png,right.png,bas,Стулья,Брусья,furniture4.png,animal6.png,animal2.png,animal1.png,298,298,-298,-298,85,-85,85,-85,"[200, 0]","[-200, 0]","[81, 81]","[81, 81]","[81, 81]","[81, 81]",4,music8.png,tool1.png,tool9.png,music4.png,None,None,None,None,298,298,-298,-298,298,298,-298,-298,316,-316,316,-316,200,-200,200,-200,"[81, 81]","[81, 81]","[81, 81]","[81, 81]","[81, 81]","[81, 81]","[81, 81]","[81, 81]",,,,,0,71,71,263,,,,,,,,,,,,,,,,,,,,,,,377.01500000001397,None,377.01500000001397,None,377.01500000001397,None,377.2242688999977,None,377.63012420001905,None,377.63012420001905,None,377.63012420001905,None,378.0407993000117,None,,,,,,,,,,,,,,,,,,,,,379.05227660003584,None,p,379.05227660003584,None,379.05227660003584,None,379.05227660003584,None,379.05227660003584,None,379.05227660003584,None,379.05227660003584,None,379.05227660003584,None,379.05227660003584,None,379.05227660003584,None,379.05227660003584,None,379.05227660003584,None,379.05227660003584,None,379.05227660003584,None,0.7477697000140324,,,,,,,NIKFNS2,001,2021_Sep_24_1533,shapka,2021.1.4,60.05093519959452,
1,7,pre,left,left.png,left.png,bas,Рубашки,Барашки,clothes3.png,car2.png,animal1.png,car4.png,-298,-298,298,298,316,-316,316,-316,"[-200, 0]","[200, 0]","[81, 81]","[81, 81]","[81, 81]","[81, 81]",4,car6.png,music10.png,animal5.png,music9.png,None,None,None,None,-298,-298,298,298,-298,-298,298,298,85,-85,85,-85,200,-200,200,-200,"[81, 81]","[81, 81]","[81, 81]","[81, 81]","[81, 81]","[81, 81]","[81, 81]","[81, 81]",,,,,0,72,72,121,,,,,,,,,,,,,,,,,,,,,,,379.846661699994,None,379.846661699994,None,379.846661699994,None,380.057701600017,None,380.4638122000033,None,380.4638122000033,None,380.4638122000033,None,380.8742578999954,None,,,,,,,,,,,,,,,,,,,,,381.9045972999884,None,p,381.9045972999884,None,381.9045972999884,None,381.9045972999884,None,381.9045972999884,None,381.9045972999884,None,381.9045972999884,None,381.9045972999884,None,381.9045972999884,None,381.9045972999884,None,381.9045972999884,None,381.9045972999884,None,381.9045972999884,None,381.9045972999884,None,1.6394534999853931,,,,,,,NIKFNS2,001,2021_Sep_24_1533,shapka,2021.1.4,60.05093519959452,
2,9,pre,right,right.png,right.png,bas,Стулья,Брусья,furniture2.png,tool3.png,car6.png,animal2.png,298,298,-298,-298,85,-85,85,-85,"[200, 0]","[-200, 0]","[81, 81]","[81, 81]","[81, 81]","[81, 81]",6,car5.png,animal4.png,music7.png,music3.png,animal8.png,music1.png,tool10.png,music9.png,298,298,-298,-298,298,298,-298,-298,316,-316,316,-316,-200,200,-200,200,"[81, 81]","[81, 81]","[81, 81]","[81, 81]","[81, 81]","[81, 81]","[81, 81]","[81, 81]",,,,,0,73,73,281,,,,,,,,,,,,,,,,,,,,,,,383.5980032000225,None,383.5980032000225,None,383.5980032000225,None,383.8078669999959,None,384.21266620000824,None,384.21266620000824,None,384.21266620000824,None,384.62438819999807,None,,,,,,,,,,,,,,,,,,,,,385.66259980003815,None,a,385.66259980003815,None,385.66259980003815,None,385.66259980003815,None,385.66259980003815,None,385.66259980003815,None,385.66259980003815,None,385.66259980003815,None,385.66259980003815,None,385.66259980003815,None,385.66259980003815,None,385.66259980003815,None,385.66259980003815,None,385.66259980003815,None,1.5297069000080228,,,,,,,NIKFNS2,001,2021_Sep_24_1533,shapka,2021.1.4,60.05093519959452,
2,7,pre,right,right.png,right.png,bas,Чашки,Шашки,tableware2.png,tool2.png,music6.png,car10.png,298,298,-298,-298,-85,85,-85,85,"[200, 0]","[-200, 0]","[81, 81]","[81, 81]","[81, 81]","[81, 81]",4,music1.png,car4.png,car1.png,tool8.png,None,None,None,None,298,298,-298,-298,298,298,-298,-298,316,-316,316,-316,200,-200,200,-200,"[81, 81]","[81, 81]","[81, 81]","[81, 81]","[81, 81]","[81, 81]","[81, 81]","[81, 81]",,,,,0,74,74,300,,,,,,,,,,,,,,,,,,,,,,,387.23148439999204,None,387.23148439999204,None,387.23148439999204,None,387.44136190001154,None,387.8472516000038,None,387.8472516000038,None,387.8472516000038,None,388.2579119000002,None,,,,,,,,,,,,,,,,,,,,,389.283795299998,None,p,389.283795299998,None,389.283795299998,None,389.283795299998,None,389.283795299998,None,389.283795299998,None,389.283795299998,None,389.283795299998,None,389.283795299998,None,389.283795299998,None,389.283795299998,None,389.283795299998,None,389.283795299998,None,389.283795299998,None,2.324247299984563,,,,,,,NIKFNS2,001,2021_Sep_24_1533,shapka,2021.1.4,60.05093519959452,
1,9,pre,left,left.png,left.png,bas,Чашки,Шашки,tableware3.png,animal1.png,car7.png,tool6.png,-298,-298,298,298,-85,85,-85,85,"[-200, 0]","[200, 0]","[81, 81]","[81, 81]","[81, 81]","[81, 81]",6,car2.png,tool3.png,animal8.png,music10.png,animal5.png,car9.png,car4.png,car1.png,-298,-298,298,298,-298,-298,298,298,316,-316,316,-316,-200,200,-200,200,"[81, 81]","[81, 81]","[81, 81]","[81, 81]","[81, 81]","[81, 81]","[81, 81]","[81, 81]",,,,,0,75,75,183,,,,,,,,,,,,,,,,,,,,,,,391.6462572000455,None,391.6462572000455,None,391.6462572000455,None,391.8581393000204,None,392.2603870999883,None,392.2603870999883,None,392.2603870999883,None,392.6748283000197,None,,,,,,,,,,,,,,,,,,,,,393.7020348000224,None,p,393.7020348000224,None,393.7020348000224,None,393.7020348000224,None,393.7020348000224,None,393.7020348000224,None,393.7020348000224,None,393.7020348000224,None,393.7020348000224,None,393.7020348000224,None,393.7020348000224,None,393.7020348000224,None,393.7020348000224,None,393.7020348000224,None,0.554263100028038,,,,,,,NIKFNS2,001,2021_Sep_24_1533,shapka,2021.1.4,60.05093519959452,
1,9,pre,left,left.png,left.png,bas,Чашки,Шашки,tableware1.png,animal8.png,tool3.png,tool4.png,-298,-298,298,298,-200,200,-200,200,"[-200, 0]","[200, 0]","[81, 81]","[81, 81]","[81, 81]","[81, 81]",6,animal9.png,animal2.png,car1.png,music7.png,music1.png,tool5.png,car6.png,car10.png,-298,-298,298,298,-298,-298,298,298,-85,85,-85,85,316,-316,316,-316,"[81, 81]","[81, 81]","[81, 81]","[81, 81]","[81, 81]","[81, 81]","[81, 81]","[81, 81]",,,,,0,76,76,187,,,,,,,,,,,,,,,,,,,,,,,394.29637270001695,None,394.29637270001695,None,394.29637270001695,None,394.508166900021,None,394.9104545000009,None,394.9104545000009,None,394.9104545000009,None,395.32499560003635,None,,,,,,,,,,,,,,,,,,,,,396.36115280003287,None,p,396.36115280003287,None,396.36115280003287,None,396.36115280003287,None,396.36115280003287,None,396.36115280003287,None,396.36115280003287,None,396.36115280003287,None,396.36115280003287,None,396.36115280003287,None,396.36115280003287,None,396.36115280003287,None,396.36115280003287,None,396.36115280003287,None,0.895240800047759,,,,,,,NIKFNS2,001,2021_Sep_24_1533,shapka,2021.1.4,60.05093519959452,
2,7,pre,right,right.png,right.png,bas,Рубашки,Барашки,clothes2.png,animal3.png,car1.png,music6.png,298,298,-298,-298,-316,316,-316,316,"[200, 0]","[-200, 0]","[81, 81]","[81, 81]","[81, 81]","[81, 81]",4,music2.png,tool4.png,tool1.png,animal9.png,None,None,None,None,298,298,-298,-298,298,298,-298,-298,-85,85,-85,85,200,-200,200,-200,"[81, 81]","[81, 81]","[81, 81]","[81, 81]","[81, 81]","[81, 81]","[81, 81]","[81, 81]",,,,,0,77,77,234,,,,,,,,,,,,,,,,,,,,,,,397.2986527000321,None,397.2986527000321,None,397.2986527000321,None,397.5083231999888,None,397.9132731000427,None,397.9132731000427,None,397.9132731000427,None,398.3250718000345,None,,,,,,,,,,,,,,,,,,,,,399.349535699992,None,p,399.349535699992,None,399.349535699992,None,399.349535699992,None,399.349535699992,None,399.349535699992,None,399.349535699992,None,399.349535699992,None,399.349535699992,None,399.349535699992,None,399.349535699992,None,399.349535699992,None,399.349535699992,None,399.349535699992,None,0.9708435999928042,,,,,,,NIKFNS2,001,2021_Sep_24_1533,shapka,2021.1.4,60.05093519959452,
